category,image_name,count,trials.thisRepN,trials.thisTrialN,trials.thisN,trials.thisIndex,thisRow.t,notes,probe_routine.started,image_onset_time,blank.started,blank.stopped,probe.started,probe.stopped,probe_routine.stopped,postmask.started,postmask_1.started,postmask_1.stopped,postmask.stopped,jitter_delay.started,jitter1,delay_post_mask.started,delay_post_mask.stopped,jitter_delay.stopped,response_routine.started,discrim_resptime,response_window,response.started,tell_response.started,response_routine.stopped,correctAns,response.corr,response.keys,visibility.started,visible_resptime,visible.started,tell_visible.started,visibility.stopped,visible.keys,visible.corr,probe_Frames,post_trial_jitter.started,jitter2,post_fixation.started,post_fixation.stopped,post_trial_jitter.stopped,show_message.started,show_message.stopped,response.stopped,tell_response.stopped,visible.stopped,tell_visible.stopped,n_square,probeFrames,participant,session,image_size,postmask_dur,block,date,expName,psychopyVersion,frameRate,expStart,
Living_Things,processed\face\female_36_0.png,0,0,0,0,80,6.015399499970954,,6.001485899963882,6.001491500006523,6.015399499970954,6.520591599983163,6.563598499982618,6.568098599964287,6.564386699988972,6.5644005999783985,6.568098599964287,6.887721400009468,6.871546799957287,6.871557799982838,1.0,6.887721400009468,7.888603299972601,7.872506099985912,7.8725230999989435,7.87252630002331,V_nV,7.888603299972601,7.888603299972601,9.373705899983179,1,0,None,9.379015699960291,9.379024500027299,9.39009449997684,9.39009449997684,10.87514530000044,None,0,1,10.875818000000436,2.5,10.891569399973378,13.395075899956282,13.377870799973607,13.377888299990445,13.378358999965712,,,,,64,1,1,001,300,20,1,2023-10-25_13h11.49.579,post-mask-only,2023.2.3,59.964584925706816,2023-10-25 13h11.55.511432 +0800,
Nonliving_Things,processed\house\House39_0.png,0,0,1,1,64,13.395075899956282,,13.378669900004752,13.378673500032164,13.395075899956282,13.894587099959608,13.911520199966617,13.92836379999062,13.912004399986472,13.912022300006356,13.92836379999062,14.261930999986362,14.247284699988086,14.247317300003488,1.0,14.261930999986362,15.262763199978508,15.246525299968198,15.246542099979706,15.246545000001788,nV_V,15.262763199978508,15.262763199978508,16.747495599964168,1,0,None,16.74777749995701,16.747780700039584,16.76423689996591,16.76423689996591,18.2491404999746,None,0,1,18.249469899979886,2.0,18.26568650000263,20.269764799973927,20.251808599976357,20.251821299956646,20.252190399973188,,,,,64,1,1,001,300,20,1,2023-10-25_13h11.49.579,post-mask-only,2023.2.3,59.964584925706816,2023-10-25 13h11.55.511432 +0800,
Living_Things,processed\face\female_47_0.png,0,0,2,2,106,20.269764799973927,,20.25249449996045,20.252495700027794,20.269764799973927,20.785627299977932,20.803546499984805,20.819297699956223,20.804986300005112,20.805044599983376,20.819297699956223,21.152141499973368,21.13744169997517,21.13745449995622,1.5,21.152141499973368,22.653343499987386,22.637166299973615,22.637183299986646,22.637187200016342,V_nV,22.653343499987386,22.653343499987386,24.138229999982286,1,0,None,24.1385957999737,24.13860130001558,24.155105699959677,24.155105699959677,25.639763099956326,None,0,1,25.639994699973613,3.5,25.65648050000891,29.16222439997364,29.14457239996409,29.144585500005633,29.1449169999687,,,,,64,1,1,001,300,20,1,2023-10-25_13h11.49.579,post-mask-only,2023.2.3,59.964584925706816,2023-10-25 13h11.55.511432 +0800,
Nonliving_Things,processed\house\House56_0.png,0,0,3,3,41,29.16222439997364,,29.145136200007983,29.145137200015597,29.16222439997364,29.67773070000112,29.694622399983928,29.71119359997101,29.695160900009796,29.695174899999984,29.71119359997101,30.044970499991905,30.028753999969922,30.02876549999928,2.5,30.044970499991905,32.54712890001247,32.53037210000912,32.530389999970794,32.53039339999668,V_nV,32.54712890001247,32.54712890001247,34.03150719997939,2,0,None,34.03186270000879,34.03186839999398,34.047986099962145,34.047986099962145,35.532958399970084,None,0,1,35.53331159998197,2.0,35.54953989997739,37.558434700011276,37.5360354000004,37.536056599987205,37.53659149998566,,,,,64,1,1,001,300,20,1,2023-10-25_13h11.49.579,post-mask-only,2023.2.3,59.964584925706816,2023-10-25 13h11.55.511432 +0800,
Nonliving_Things,processed\house\House80_0.png,0,0,4,4,15,37.558434700011276,,37.53696050000144,37.53696430003038,37.558434700011276,38.06865079997806,38.085641799960285,38.10254089999944,38.08614520000992,38.08616259996779,38.10254089999944,38.436316999956034,38.420053499983624,38.42006599996239,2.5,38.436316999956034,40.93823759997031,40.92562509997515,40.92564819997642,40.925651900004596,nV_V,40.93823759997031,40.93823759997031,42.423417899990454,1,0,None,42.42366450000554,42.4236672000261,42.439865999971516,42.439865999971516,43.92502769996645,None,0,1,43.925298499991186,3.0,43.94125209999038,46.94589279999491,46.92818809999153,46.92820639995625,46.92865299998084,42.439865999971516,42.439865999971516,43.94125209999038,43.94125209999038,64,1,1,001,300,20,1,2023-10-25_13h11.49.579,post-mask-only,2023.2.3,59.964584925706816,2023-10-25 13h11.55.511432 +0800,
Living_Things,processed\face\male_18_0.png,0,0,5,5,0,46.94589279999491,,46.92897010000888,46.928973700036295,46.94589279999491,47.46136670000851,47.478620999958366,47.49502059997758,47.47918679995928,47.47920439997688,47.49502059997758,47.828478100011125,47.812812399992254,47.812823999964166,1.5,47.828478100011125,49.33002860000124,49.31370150001021,49.31371769995894,49.31371910002781,V_nV,49.33002860000124,49.33002860000124,50.81489529996179,1,0,None,50.81517219997477,50.81517489999533,50.831465399998706,50.831465399998706,52.31637299997965,None,0,1,52.31670510000549,2.0,52.33308650000254,54.335705399978906,54.31869240000378,54.318706599995494,54.319060200010426,,,,,64,1,1,001,300,20,1,2023-10-25_13h11.49.579,post-mask-only,2023.2.3,59.964584925706816,2023-10-25 13h11.55.511432 +0800,
Nonliving_Things,processed\house\House2_0.png,0,0,6,6,195,54.335705399978906,,54.31932000000961,54.31932200002484,54.335705399978906,54.835356399999,54.85242599999765,54.86905909999041,54.85293829999864,54.85295520001091,54.86905909999041,55.20261959999334,55.18844930001069,55.18846889998531,3.0,55.20261959999334,58.20551719999639,58.18933500000276,58.18935160001274,58.18935480003711,V_nV,58.20551719999639,58.20551719999639,59.69093909999356,2,0,None,59.69127989996923,59.691285000008065,59.70743579999544,59.70743579999544,61.19191970000975,None,0,1,61.19226479995996,2.5,61.208584999956656,63.71158840000862,63.69474850001279,63.69476659997599,63.695210699981544,,,,,64,1,1,001,300,20,1,2023-10-25_13h11.49.579,post-mask-only,2023.2.3,59.964584925706816,2023-10-25 13h11.55.511432 +0800,
Nonliving_Things,processed\house\House38_0.png,0,0,7,7,2,63.71158840000862,,63.69552609999664,63.695529800024815,63.71158840000862,64.21187729999656,64.22849349997705,64.24518159998115,64.22904659999767,64.2290648999624,64.24518159998115,64.57890699995914,64.56370120000793,64.56372989999363,1.5,64.57890699995914,66.08004480000818,66.06376240000827,66.06378049997147,66.0637843000004,nV_V,66.08004480000818,66.08004480000818,67.56611600000178,1,0,None,67.56671149999602,67.56672280002385,67.58233309997013,67.58233309997013,69.06647179997526,None,0,1,69.06680589995813,2.5,69.08361939998576,71.5866032000049,71.56923909997568,71.56925199995749,71.569589599967,,,,,64,1,1,001,300,20,1,2023-10-25_13h11.49.579,post-mask-only,2023.2.3,59.964584925706816,2023-10-25 13h11.55.511432 +0800,
Living_Things,processed\face\male_43_0.png,0,0,8,8,62,71.5866032000049,,71.56983019999461,71.56983190000756,71.5866032000049,72.08593629999086,72.10296469996683,72.11976380000124,72.1035666000098,72.10358349996386,72.11976380000124,72.45304079999914,72.43751640000846,72.43753449997166,1.5,72.45304079999914,73.95456939999713,73.93816789996345,73.9381807000027,73.93818190001184,V_nV,73.95456939999713,73.95456939999713,75.43964100000449,1,0,None,75.44004630000563,75.44005239999387,75.45597839995753,75.45597839995753,76.94105659995694,None,0,1,76.94138049997855,3.0,76.95756899996195,79.96171149995644,79.94438890001038,79.9444066999713,79.9448503999738,,,,,64,1,1,001,300,20,1,2023-10-25_13h11.49.579,post-mask-only,2023.2.3,59.964584925706816,2023-10-25 13h11.55.511432 +0800,
Living_Things,processed\face\male_66_0.png,0,0,9,9,145,79.96171149995644,,79.94517479999922,79.94517840002663,79.96171149995644,80.46187040000223,80.47831919998862,80.49657299998216,80.478913799976,80.47893029998522,80.49657299998216,80.82816729997285,80.81256719998783,80.81259149999823,1.5,80.82816729997285,82.32953539997106,82.3139749999973,82.3139956999803,82.31400030001532,V_nV,82.32953539997106,82.32953539997106,83.81466159998672,1,0,None,83.81502089998685,83.81502670003101,83.83109549997607,83.83109549997607,85.31601959996624,None,0,1,85.3162941999617,3.0,85.332569399965,88.35229760000948,88.31939339998644,88.31941190001089,88.31985979998717,,,,,64,1,1,001,300,20,1,2023-10-25_13h11.49.579,post-mask-only,2023.2.3,59.964584925706816,2023-10-25 13h11.55.511432 +0800,
Nonliving_Things,processed\house\House24_0.png,0,0,10,10,52,88.35229760000948,,88.32018139999127,88.32018490001792,88.35229760000948,88.85288650001166,88.86978419998195,88.88635449996218,88.87029319995781,88.87033010000596,88.88635449996218,89.21985779999522,89.20420209999429,89.20421999995597,1.0,89.21985779999522,90.2207364999922,90.20468099997379,90.20469799998682,90.20470110001042,nV_V,90.2207364999922,90.2207364999922,91.7058449999895,1,0,None,91.70620219997363,91.70620790001703,91.72223630000371,91.72223630000371,93.20734099997208,None,0,1,93.20767589996103,3.0,93.22381709999172,96.22689039999386,96.21064249996562,96.21065979998093,96.2111084999633,,,,,64,1,1,001,300,20,1,2023-10-25_13h11.49.579,post-mask-only,2023.2.3,59.964584925706816,2023-10-25 13h11.55.511432 +0800,
Nonliving_Things,processed\house\House19_0.png,0,0,11,11,183,96.22689039999386,,96.2114345000009,96.21143810002832,96.22689039999386,96.72728309995728,96.7442334999796,96.76121089997469,96.74472700001206,96.74474210001063,96.76121089997469,97.09449669998139,97.07976900000358,97.07981789996848,2.5,97.09449669998139,99.59691999998176,99.58057469996857,99.58059249998769,99.58059550001053,V_nV,99.59691999998176,99.59691999998176,101.08170589996735,2,0,None,101.08206869999412,101.08207450003829,101.09839190001367,101.09839190001367,102.58321869996144,None,0,1,102.58356519998051,3.5,102.59977400000207,106.10368239996023,106.0871530000004,106.08717059995979,106.0876130000106,,,,,64,1,1,001,300,20,1,2023-10-25_13h11.49.579,post-mask-only,2023.2.3,59.964584925706816,2023-10-25 13h11.55.511432 +0800,
Nonliving_Things,processed\house\House50_0.png,0,0,12,12,82,106.10368239996023,,106.08793350000633,106.0879372000345,106.10368239996023,106.60407319996739,106.6234227999812,106.63748470001156,106.62398350000149,106.62400179996621,106.63748470001156,106.97094119997928,106.95523479999974,106.95525289996294,2.5,106.97094119997928,109.4733503999887,109.45719950000057,109.45721620001132,109.45721920003416,V_nV,109.4733503999887,109.4733503999887,110.95826919999672,2,0,None,110.95857889996842,110.95858340000268,110.97498780000024,110.97498780000024,112.45979809999699,None,0,1,112.46015319996513,2.0,112.47634599998128,114.48356689995853,114.4629006999894,114.46292670001276,114.46352920000209,,,,,64,1,1,001,300,20,1,2023-10-25_13h11.49.579,post-mask-only,2023.2.3,59.964584925706816,2023-10-25 13h11.55.511432 +0800,
Living_Things,processed\face\male_61_0.png,0,0,13,13,140,114.48356689995853,,114.4638773999759,114.46388110000407,114.48356689995853,114.99561240000185,115.01245529996231,115.0293048999738,115.01295199996093,115.01296899997396,115.0293048999738,115.36253139999462,115.34695789997932,115.34697099996265,1.0,115.36253139999462,116.36363999999594,116.34734699997352,116.34736419998808,116.34736770001473,V_nV,116.36363999999594,116.36363999999594,117.84841360000428,1,0,None,117.8487679999671,117.84878030000255,117.86508929997217,117.86508929997217,119.35005199996522,None,0,1,119.35038199997507,3.0,119.36677389999386,122.37186620000284,122.35330529999919,122.35332299995935,122.35377109999536,,,,,64,1,1,001,300,20,1,2023-10-25_13h11.49.579,post-mask-only,2023.2.3,59.964584925706816,2023-10-25 13h11.55.511432 +0800,
Living_Things,processed\face\male_74_0.png,0,0,14,14,58,122.37186620000284,,122.3540837999899,122.35408720001578,122.37186620000284,122.88690659997519,122.90374159999192,122.92034479998983,122.90426469995873,122.90428199997405,122.92034479998983,123.25388789997669,123.2383078999701,123.2383220999618,1.5,123.25388789997669,124.7553207000019,124.73908299999312,124.73910100001376,124.73910490004346,V_nV,124.7553207000019,124.7553207000019,126.24015919998055,1,0,None,126.24047259998042,126.24047620000783,126.25689520000014,126.25689520000014,127.74173030001111,None,0,1,127.74205689999508,2.0,127.7583112999564,129.76093150000088,129.74443679995602,129.74445090000518,129.7448252000031,,,,,64,1,1,001,300,20,1,2023-10-25_13h11.49.579,post-mask-only,2023.2.3,59.964584925706816,2023-10-25 13h11.55.511432 +0800,
Living_Things,processed\face\female_29_0.png,0,0,15,15,182,129.76093150000088,,129.74507780000567,129.74508000002243,129.76093150000088,130.2607091999962,130.2780575999641,130.29449529998237,130.27879670000402,130.27882010000758,130.29449529998237,130.62773020000895,130.61216779996175,130.61218639998697,1.5,130.62773020000895,132.12940519995755,132.11302519997116,132.11304259998724,132.11304600001313,nV_V,132.12940519995755,132.12940519995755,133.6144071999588,2,0,None,133.61469989997568,133.61470330000157,133.63079490000382,133.63079490000382,135.11566289997427,None,0,1,135.11602389998734,3.5,135.13222999998834,138.64049729995895,138.61960899998667,138.61962799995672,138.62013319996186,,,,,64,1,1,001,300,20,1,2023-10-25_13h11.49.579,post-mask-only,2023.2.3,59.964584925706816,2023-10-25 13h11.55.511432 +0800,
Living_Things,processed\face\male_1_0.png,0,0,16,16,155,138.64049729995895,,138.6204691999592,138.6204728000448,138.64049729995895,139.15417749999324,139.17302649997873,139.1866559999762,139.17350249999436,139.1735160999815,139.1866559999762,139.5200706999749,139.50435369997285,139.5043770999764,1.0,139.5200706999749,140.52100609999616,140.504821599985,140.5048386999988,140.50484220002545,V_nV,140.52100609999616,140.52100609999616,142.0058973999694,1,0,None,142.00620519998483,142.00620940001681,142.02236209996045,142.02236209996045,143.5073842999991,None,0,1,143.5077177999774,3.5,143.52402599999914,147.04889119998552,147.0117207999574,147.01176069997018,147.01258919999236,,,,,64,1,1,001,300,20,1,2023-10-25_13h11.49.579,post-mask-only,2023.2.3,59.964584925706816,2023-10-25 13h11.55.511432 +0800,
Nonliving_Things,processed\house\House69_0.png,0,0,17,17,178,147.04889119998552,,147.0132159999921,147.0132279000245,147.04889119998552,147.5611889999709,147.57820839999476,147.5950081999763,147.57842400000663,147.57843499997398,147.5950081999763,147.92838880000636,147.912998099986,147.91301600000588,3.0,147.92838880000636,150.93147849995876,150.9151366999722,150.91515449999133,150.91516760003287,V_nV,150.93147849995876,150.93147849995876,152.41660459997365,2,0,None,152.4169174999697,152.4169203999918,152.43292890000157,152.43292890000157,153.91772279998986,None,0,1,153.9180672999937,3.0,153.9344011999783,156.93773870001314,156.92123169999104,156.92124459997285,156.9215427999734,,,,,64,1,1,001,300,20,1,2023-10-25_13h11.49.579,post-mask-only,2023.2.3,59.964584925706816,2023-10-25 13h11.55.511432 +0800,
Nonliving_Things,processed\house\House51_0.png,0,0,18,18,32,156.93773870001314,,156.921885299962,156.9218905000016,156.93773870001314,157.43789319996722,157.45733299996937,157.47155109996675,157.45806709997123,157.4580844999873,157.47155109996675,157.80494860000908,157.7896427999949,157.78966670000227,1.5,157.80494860000908,159.30643559998134,159.29030069999862,159.2903173000086,159.29032140003983,nV_V,159.30643559998134,159.30643559998134,160.79144920001272,1,0,None,160.79180569999153,160.7918120000395,160.80801440001233,160.80801440001233,162.29289749998134,None,0,1,162.29324649996124,3.0,162.30946700001368,165.3171378999832,165.29628409998259,165.29630099999486,165.29674729995895,,,,,64,1,1,001,300,20,1,2023-10-25_13h11.49.579,post-mask-only,2023.2.3,59.964584925706816,2023-10-25 13h11.55.511432 +0800,
Living_Things,processed\face\male_75_0.png,0,0,19,19,107,165.3171378999832,,165.29707480000798,165.2970784000354,165.3171378999832,165.82957639999222,165.84650469996268,165.86324460001197,165.84701139997924,165.84702609997476,165.86324460001197,166.1966204000055,166.1808698999812,166.18088369996985,2.0,166.1966204000055,168.19917479995638,168.1824441999779,168.18246069998713,168.18246400001226,V_nV,168.19917479995638,168.19917479995638,169.68359079997754,1,0,None,169.68383920000633,169.68384170002537,169.7002083999687,169.7002083999687,171.18533259996912,None,0,1,171.18567549996078,2.0,171.20405339996796,173.2046377999941,173.1874919999973,173.18750969995745,173.18796459998703,,,,,64,1,1,001,300,20,1,2023-10-25_13h11.49.579,post-mask-only,2023.2.3,59.964584925706816,2023-10-25 13h11.55.511432 +0800,
Living_Things,processed\face\female_44_0.png,0,0,20,20,56,173.2046377999941,,173.1882921999786,173.18829590000678,173.2046377999941,173.70413289999124,173.72118429996772,173.7376072999905,173.7218096999568,173.72182759997668,173.7376072999905,174.07111799996346,174.05578150000656,174.05580019997433,1.0,174.07111799996346,175.07210980000673,175.05590360000497,175.05591870000353,175.05592150002485,nV_V,175.07210980000673,175.07210980000673,176.5571353000123,2,0,None,176.5574889999698,176.55749460001243,176.57363409997197,176.57363409997197,178.05854810000164,None,0,1,178.05888829997275,2.5,178.07512940000743,180.5794923999929,180.56161659996724,180.56163439998636,180.5620740999584,,,,,64,1,1,001,300,20,1,2023-10-25_13h11.49.579,post-mask-only,2023.2.3,59.964584925706816,2023-10-25 13h11.55.511432 +0800,
Living_Things,processed\face\female_20_0.png,0,0,21,21,115,180.5794923999929,,180.56239450001158,180.56239820003975,180.5794923999929,181.09489479998592,181.111936900008,181.12858759996016,181.11245369998505,181.11247629998252,181.12858759996016,181.49530399998184,181.47946959995897,181.47948209999595,2.5,181.49530399998184,183.99778999999398,183.98148159997072,183.9814989999868,183.98151100001996,V_nV,183.99778999999398,183.99778999999398,185.48281909996876,1,0,None,185.48324450000655,185.4832505999948,185.49946929997532,185.49946929997532,186.98413070000242,None,0,1,186.98446959996363,3.0,187.0008141999715,190.00453849998303,189.98754239996197,189.9875606999849,189.98801420000382,,,,,64,1,1,001,300,20,1,2023-10-25_13h11.49.579,post-mask-only,2023.2.3,59.964584925706816,2023-10-25 13h11.55.511432 +0800,
Nonliving_Things,processed\house\House30_0.png,0,0,22,22,31,190.00453849998303,,189.98832120001316,189.98832480004057,190.00453849998303,190.50421769998502,190.52115749998484,190.5378389999969,190.52155529998709,190.52156729996204,190.5378389999969,190.87125399999786,190.85525029996643,190.85526169999503,3.0,190.87125399999786,193.87427390000084,193.86000899999635,193.86002759996336,193.86003100004746,nV_V,193.87427390000084,193.87427390000084,195.35955549997743,1,0,None,195.3598903999664,195.35989690001588,195.3757378999726,195.3757378999726,196.86052079999354,None,0,1,196.86072080000304,2.0,196.87737040000502,198.8961257999763,198.86300499999197,198.86302310001338,198.86347829998704,195.3757378999726,195.3757378999726,,,64,1,1,001,300,20,1,2023-10-25_13h11.49.579,post-mask-only,2023.2.3,59.964584925706816,2023-10-25 13h11.55.511432 +0800,
Nonliving_Things,processed\house\House82_0.png,0,0,23,23,51,198.8961257999763,,198.86380089999875,198.8638044000254,198.8961257999763,199.39642219996313,199.4133548999671,199.4302188999718,199.41387899999972,199.41389679996064,199.4302188999718,199.76340140000684,199.747833899979,199.74784570001066,2.0,199.76340140000684,201.76548750000075,201.74930109997513,201.74931659997674,201.74931970000034,V_nV,201.76548750000075,201.76548750000075,203.25037369999336,2,0,None,203.2507308999775,203.25073670002166,203.2670818999759,203.2670818999759,204.75309389998438,None,0,1,204.75364949996583,3.0,204.76986379997106,207.79619049996836,207.7562784999609,207.75636769999983,207.7577389999642,,,,,64,1,1,001,300,20,1,2023-10-25_13h11.49.579,post-mask-only,2023.2.3,59.964584925706816,2023-10-25 13h11.55.511432 +0800,
Living_Things,processed\face\female_14_0.png,0,0,24,24,66,207.79619049996836,,207.7587671999936,207.75878810003633,207.79619049996836,208.30529389996082,208.32243709999602,208.33901180000976,208.3231224999763,208.32314519997453,208.33901180000976,208.67239689995768,208.65670569997746,208.656718299957,1.0,208.67239689995768,209.6734332999913,209.65722190000815,209.65723979996983,209.65724309999496,nV_V,209.6734332999913,209.6734332999913,211.15858569997363,2,0,None,211.15940070000943,211.1594194000354,211.17507639998803,211.17507639998803,212.65979549998883,None,0,1,212.6600392999826,2.5,212.67639119998785,215.1803021999658,215.16277009999612,215.16278779995628,215.16323569999076,,,,,64,1,1,001,300,20,1,2023-10-25_13h11.49.579,post-mask-only,2023.2.3,59.964584925706816,2023-10-25 13h11.55.511432 +0800,
Living_Things,processed\face\female_51_0.png,0,0,25,25,175,215.1803021999658,,215.16355369996745,215.16355729999486,215.1803021999658,215.67935639998177,215.6962366999942,215.71402549999766,215.69676610000897,215.6967830999638,215.71402549999766,216.04636699997354,216.03045719995862,216.0304683999857,2.5,216.04636699997354,218.54888239997672,218.53270260000136,218.53271499997936,218.53271640004823,V_nV,218.54888239997672,218.54888239997672,220.0338232999784,1,0,None,220.03415530000348,220.03416010004003,220.05044319998706,220.05044319998706,221.53533669997705,None,0,1,221.53567409998504,3.0,221.55198129999917,224.56829989998369,224.53872660000343,224.53875299997162,224.53924319997896,,,,,64,1,1,001,300,20,1,2023-10-25_13h11.49.579,post-mask-only,2023.2.3,59.964584925706816,2023-10-25 13h11.55.511432 +0800,
Nonliving_Things,processed\house\House13_0.png,0,0,26,26,151,224.56829989998369,,224.53956139995717,224.53956480004126,224.56829989998369,225.0720655999612,225.08903759997338,225.10574699996505,225.0894134999835,225.0894232999999,225.10574699996505,225.439149599988,225.42356480000308,225.42357809998794,2.0,225.439149599988,227.44105389999459,227.42491110000992,227.42492839996703,227.42493150004884,V_nV,227.44105389999459,227.44105389999459,228.92643809999572,2,0,None,228.92685479996726,228.92686050001066,228.94257499999367,228.94257499999367,230.42757589998655,None,0,1,230.4279225000064,2.5,230.44407329999376,232.95489950000774,232.93106350000016,232.93109689996345,232.93196009995881,,,,,64,1,1,001,300,20,1,2023-10-25_13h11.49.579,post-mask-only,2023.2.3,59.964584925706816,2023-10-25 13h11.55.511432 +0800,
Nonliving_Things,processed\house\House26_0.png,0,0,27,27,29,232.95489950000774,,232.9325477000093,232.9325596000417,232.95489950000774,233.46414170000935,233.48088119999738,233.4974554000073,233.48139829997672,233.48141639999812,233.4974554000073,233.83080960001098,233.81511099997442,233.81512679997832,1.0,233.83080960001098,234.83184910001,234.8160056999768,234.81602139997995,234.8160228000488,nV_V,234.83184910001,234.83184910001,236.3167117999983,1,0,None,236.31706789997406,236.31707370001823,236.33347269997466,236.33347269997466,237.81825099996058,None,0,1,237.81858399999328,2.0,237.83485789998667,239.83798700000625,239.82068679999793,239.82070439995732,239.8211411999655,,,,,64,1,1,001,300,20,1,2023-10-25_13h11.49.579,post-mask-only,2023.2.3,59.964584925706816,2023-10-25 13h11.55.511432 +0800,
Nonliving_Things,processed\house\House5_0.png,0,0,28,28,1,239.83798700000625,,239.82144999998854,239.82145340001443,239.83798700000625,240.33724239998264,240.35424119996605,240.37091409997083,240.35479829995893,240.35481489996891,240.37091409997083,240.70430769998347,240.6888988999999,240.68891739996616,1.0,240.70430769998347,241.70540059998166,241.68915140000172,241.68916839995654,241.68917200004216,V_nV,241.70540059998166,241.70540059998166,243.19026539998595,2,0,None,243.1906248999876,243.190630600031,243.20691730000544,243.20691730000544,244.69177450001007,None,0,1,244.69211989996256,2.0,244.70830930001102,246.71287809999194,246.69422129995655,246.6942392999772,246.69469380000373,,,,,64,1,1,001,300,20,1,2023-10-25_13h11.49.579,post-mask-only,2023.2.3,59.964584925706816,2023-10-25 13h11.55.511432 +0800,
Nonliving_Things,processed\house\House90_0.png,0,0,29,29,26,246.71287809999194,,246.69501789996866,246.69502159999683,246.71287809999194,247.22747409995645,247.24440409999806,247.26115589996334,247.24493169999914,247.244949099957,247.26115589996334,247.59453639999265,247.57900460000383,247.57902740000281,1.0,247.59453639999265,248.59580909996293,248.58009499998298,248.5801580999978,248.58017170004314,V_nV,248.59580909996293,248.59580909996293,250.08044379996136,2,0,None,250.08080090000294,250.08080650004558,250.09704119997332,250.09704119997332,251.58192239998607,None,0,1,251.5822623000131,2.5,251.59864320000634,254.10289280000143,254.0849097999744,254.08493479999015,254.08538010000484,,,,,64,1,1,001,300,20,1,2023-10-25_13h11.49.579,post-mask-only,2023.2.3,59.964584925706816,2023-10-25 13h11.55.511432 +0800,
Nonliving_Things,processed\house\House81_0.png,0,0,30,30,159,254.10289280000143,,254.08568670001114,254.0856902000378,254.10289280000143,254.61818869999843,254.6351391999633,254.65180910000345,254.63565750000998,254.635673999961,254.65180910000345,254.98539889999665,254.9697116999887,254.96972910000477,3.0,254.98539889999665,257.9882132000057,257.9722106999834,257.97222840000177,257.9722314000246,V_nV,257.9882132000057,257.9882132000057,259.4731010000105,2,0,None,259.4734556999756,259.473461400019,259.48980059998576,259.48980059998576,260.9747493999894,None,0,1,260.97507990000304,3.5,260.99131859996123,264.4966224000091,264.47859879996395,264.4786156999762,264.4790676999837,,,,,64,1,1,001,300,20,1,2023-10-25_13h11.49.579,post-mask-only,2023.2.3,59.964584925706816,2023-10-25 13h11.55.511432 +0800,
Living_Things,processed\face\male_69_0.png,0,0,31,31,179,264.4966224000091,,264.4793781999615,264.47938170004636,264.4966224000091,265.011923699989,265.028850600007,265.04571159998886,265.02937669999665,265.02939400001196,265.04571159998886,265.3790055999998,265.3633706999826,265.3633886000025,1.0,265.3790055999998,266.3799749999889,266.3638728999649,266.363890299981,266.3638936000061,V_nV,266.3799749999889,266.3799749999889,267.86480270000175,1,0,None,267.86515430000145,267.86516000004485,267.881406600005,267.881406600005,269.3668832000112,None,0,1,269.36731160001364,3.0,269.3830096999882,272.39105849998305,272.3698938000016,272.36991800001124,272.37050939997425,,,,,64,1,1,001,300,20,1,2023-10-25_13h11.49.579,post-mask-only,2023.2.3,59.964584925706816,2023-10-25 13h11.55.511432 +0800,
Nonliving_Things,processed\house\House9_0.png,0,0,32,32,192,272.39105849998305,,272.3709491000045,272.3709557999973,272.39105849998305,272.9031565999612,272.92026009998517,272.9368880999973,272.9210280000116,272.92105239996454,272.9368880999973,273.2732216999866,273.25511309999274,273.25513939996017,2.5,273.2732216999866,275.7725614999654,275.75609420001274,275.7561059999862,275.7561072999961,V_nV,275.7725614999654,275.7725614999654,277.2576338999788,2,0,None,277.2579844999709,277.2579911000212,277.274156200001,277.274156200001,278.7595020000008,None,0,1,278.75990030000685,2.5,278.77559559996007,281.2808079000097,281.2619787000003,281.2619960999582,281.2624345999793,,,,,64,1,1,001,300,20,1,2023-10-25_13h11.49.579,post-mask-only,2023.2.3,59.964584925706816,2023-10-25 13h11.55.511432 +0800,
Living_Things,processed\face\female_53_0.png,0,0,33,33,87,281.2808079000097,,281.26274829998147,281.2627516000066,281.2808079000097,281.79529819998425,281.81321599998046,281.8299109999789,281.8140483999741,281.814063799975,281.8299109999789,282.1623455999652,282.1467831999762,282.1468021000037,3.0,282.1623455999652,285.1653542999993,285.14901049999753,285.1490223999717,285.14902370003983,nV_V,285.1653542999993,285.1653542999993,286.6500924999709,2,0,None,286.65030019998085,286.65030249999836,286.6666944999597,286.6666944999597,288.1517654999625,None,0,1,288.15210249996744,3.0,288.1684022999834,291.1866144000087,291.15524319995893,291.15526079997653,291.15571009996347,,,,,64,1,1,001,300,20,1,2023-10-25_13h11.49.579,post-mask-only,2023.2.3,59.964584925706816,2023-10-25 13h11.55.511432 +0800,
Living_Things,processed\face\female_54_0.png,0,0,34,34,122,291.1866144000087,,291.1560325999744,291.15603620000184,291.1866144000087,291.68867040000623,291.7055373999756,291.72215159999905,291.7059818999842,291.7059914999991,291.72215159999905,292.0555596000049,292.0399778999854,292.0399957000045,1.5,292.0555596000049,293.557101399987,293.5409439000068,293.5409607999609,293.5409639000427,nV_V,293.557101399987,293.557101399987,295.0419458000106,2,0,None,295.04232229996705,295.04232800001046,295.0587186999619,295.0587186999619,296.5435414999956,None,0,1,296.54387210001005,3.0,296.56010770000285,299.5768792000017,299.54696329997387,299.54698069998994,299.54743709997274,,,,,64,1,1,001,300,20,1,2023-10-25_13h11.49.579,post-mask-only,2023.2.3,59.964584925706816,2023-10-25 13h11.55.511432 +0800,
Nonliving_Things,processed\house\House22_0.png,0,0,35,35,190,299.5768792000017,,299.547749499965,299.5477529000491,299.5768792000017,300.08029349998105,300.09735110000474,300.1138159999973,300.09788119996665,300.09789799997816,300.1138159999973,300.4473038999713,300.4316271999851,300.43164309998974,3.0,300.4473038999713,303.45060280000325,303.4340790999704,303.43409629998496,303.4340998000116,nV_V,303.45060280000325,303.45060280000325,304.9366519000032,1,0,None,304.9372821999714,304.9372884000186,304.9530045000138,304.9530045000138,306.4367834999575,None,0,1,306.4371125999605,2.5,306.4532856000005,308.955865899974,308.9397470999975,308.9397619999945,308.94015469995793,,,,,64,1,1,001,300,20,1,2023-10-25_13h11.49.579,post-mask-only,2023.2.3,59.964584925706816,2023-10-25 13h11.55.511432 +0800,
Nonliving_Things,processed\house\House66_0.png,0,0,36,36,78,308.955865899974,,308.94042790000094,308.94043040002,308.955865899974,309.4564342999947,309.4734395999694,309.4902280999813,309.4739705999964,309.47398800001247,309.4902280999813,309.8234047999722,309.80767869995907,309.80769709998276,1.0,309.8234047999722,310.8244488000055,310.8089351999806,310.8089556999621,310.8089591000462,V_nV,310.8244488000055,310.8244488000055,312.3092212000047,2,0,None,312.30958939995617,312.30959520000033,312.3258877999615,312.3258877999615,313.81196009996347,None,0,1,313.81304599996656,2.5,313.8299463999574,316.3309148999979,316.31359529995825,316.3136134999804,316.31405839999206,,,,,64,1,1,001,300,20,1,2023-10-25_13h11.49.579,post-mask-only,2023.2.3,59.964584925706816,2023-10-25 13h11.55.511432 +0800,
Living_Things,processed\face\male_63_0.png,0,0,37,37,47,316.3309148999979,,316.3143803999992,316.31438420002814,316.3309148999979,316.8303592999582,316.84726909996243,316.8639385999995,316.847790299973,316.84780799999135,316.8639385999995,317.1974870999693,317.1820094999857,317.18202760000713,2.0,317.1974870999693,319.19942999997875,319.1831981999567,319.1832156999735,319.18321899999864,V_nV,319.19942999997875,319.19942999997875,320.68438509997213,1,0,None,320.6847409000038,320.6847466000472,320.7008843999938,320.7008843999938,322.18576819996815,None,0,1,322.186110599956,3.5,322.20232699997723,325.7102513000136,325.6896316999919,325.68965009995736,325.69009329995606,,,,,64,1,1,001,300,20,1,2023-10-25_13h11.49.579,post-mask-only,2023.2.3,59.964584925706816,2023-10-25 13h11.55.511432 +0800,
Nonliving_Things,processed\house\House16_0.png,0,0,38,38,91,325.7102513000136,,325.69041079998715,325.6904146000161,325.7102513000136,326.22305689996574,326.2400803999626,326.25681709998753,326.2406431999989,326.24065960000735,326.25681709998753,326.5899899000069,326.5745232999907,326.5745470999973,2.5,326.5899899000069,329.09259670000756,329.0763442000025,329.0763614999596,329.07636480004294,V_nV,329.09259670000756,329.09259670000756,330.57748869998613,2,0,None,330.5778401999851,330.57784570002696,330.5940006999881,330.5940006999881,332.07892489997903,None,0,1,332.0792641000007,3.5,332.0955141999875,335.59918550000293,335.5828440999612,335.58286239998415,335.5833144999924,,,,,64,1,1,001,300,20,1,2023-10-25_13h11.49.579,post-mask-only,2023.2.3,59.964584925706816,2023-10-25 13h11.55.511432 +0800,
Living_Things,processed\face\female_16_0.png,0,0,39,39,117,335.59918550000293,,335.5836367000011,335.58364070003154,335.59918550000293,336.0994264999754,336.11656850000145,336.1337021999643,336.1176010000054,336.1176595999859,336.1337021999643,336.46748910000315,336.45203899999615,336.45207130000927,1.5,336.46748910000315,337.9682343999739,337.951962799998,337.9519788000034,337.95198160002474,V_nV,337.9682343999739,337.9682343999739,339.4531430999632,1,0,None,339.4534279999789,339.45343100000173,339.4694277999806,339.4694277999806,340.95450339996023,None,0,1,340.95484439999564,2.5,340.9712288999581,343.4737782999873,343.45725489995675,343.4572674999945,343.4576042999979,,,,,64,1,1,001,300,20,1,2023-10-25_13h11.49.579,post-mask-only,2023.2.3,59.964584925706816,2023-10-25 13h11.55.511432 +0800,
Nonliving_Things,processed\house\House54_0.png,0,0,40,40,150,343.4737782999873,,343.45783500000834,343.4578366000205,343.4737782999873,343.9741769999964,343.9913863000111,344.0078947999864,343.99204380001174,343.9920624999795,344.0078947999864,344.3411010999698,344.32824389997404,344.3282629000023,3.0,344.3411010999698,347.34406579995994,347.3279498000047,347.3279679999687,347.3279709999915,V_nV,347.34406579995994,347.34406579995994,348.8290049000061,2,0,None,348.82935670000734,348.8293624999933,348.8457561999676,348.8457561999676,350.33055969997076,None,0,1,350.33089919999475,3.5,350.3470654999837,353.85395399999106,353.8344957999652,353.83451359998435,353.83497359999456,,,,,64,1,1,001,300,20,1,2023-10-25_13h11.49.579,post-mask-only,2023.2.3,59.964584925706816,2023-10-25 13h11.55.511432 +0800,
Nonliving_Things,processed\house\House27_0.png,0,0,41,41,128,353.85395399999106,,353.8352867999929,353.83529030001955,353.85395399999106,354.3678552999627,354.38477890001377,354.40133490000153,354.3852900000056,354.3853065999574,354.40133490000153,354.73493480001343,354.7204178000102,354.72044070000993,3.0,354.73493480001343,357.7378558999626,357.72151979996124,357.72153169999365,357.721532800002,V_nV,357.7378558999626,357.7378558999626,359.22309409995796,2,0,None,359.22345089999726,359.22345640003914,359.23957139998674,359.23957139998674,360.72418959997594,None,0,1,360.7245412999764,2.0,360.7407986999606,362.743032999977,362.72668909997446,362.7267024999601,362.72707199997967,,,,,64,1,1,001,300,20,1,2023-10-25_13h11.49.579,post-mask-only,2023.2.3,59.964584925706816,2023-10-25 13h11.55.511432 +0800,
Nonliving_Things,processed\house\House8_0.png,0,0,42,42,149,362.743032999977,,362.72732969996287,362.7273317000363,362.743032999977,363.24334519996773,363.26020610000705,363.27690820000134,363.26081149996025,363.26082909997785,363.27690820000134,363.6103405999602,363.5946947999764,363.5947124999948,3.0,363.6103405999602,366.61339459999,366.5975051999558,366.59753219998674,366.597538800037,nV_V,366.61339459999,366.61339459999,368.0982395999599,1,0,None,368.098606799962,368.09861240000464,368.1148261000053,368.1148261000053,369.5998871999909,None,0,1,369.60021800000686,3.5,369.61643840000033,373.11993609997444,373.1034815000021,373.1034914999618,373.10379879997345,,,,,64,1,1,001,300,20,1,2023-10-25_13h11.49.579,post-mask-only,2023.2.3,59.964584925706816,2023-10-25 13h11.55.511432 +0800,
Living_Things,processed\face\male_72_0.png,0,0,43,43,148,373.11993609997444,,373.10401409998303,373.10401510004885,373.11993609997444,373.6203756000032,373.63733409997076,373.6538106999942,373.63783989998046,373.6378563999897,373.6538106999942,373.98736629995983,373.97159149998333,373.97160409996286,2.5,373.98736629995983,376.4899188000127,376.47355910000624,376.4735713999835,376.4735725999926,nV_V,376.4899188000127,376.4899188000127,377.97517280001193,2,0,None,377.975583499996,377.9755895000417,377.9923497000127,377.9923497000127,379.47629169997526,None,0,1,379.47663429996464,3.5,379.492809999967,382.9970258999965,382.9802296999842,382.98024710000027,382.98068829998374,,,,,64,1,1,001,300,20,1,2023-10-25_13h11.49.579,post-mask-only,2023.2.3,59.964584925706816,2023-10-25 13h11.55.511432 +0800,
Nonliving_Things,processed\house\House49_0.png,0,0,44,44,103,382.9970258999965,,382.98100109997904,382.98100440000417,382.9970258999965,383.499147799972,383.5138677000068,383.530437599984,383.51431569998385,383.51433039997937,383.530437599984,383.8638720999588,383.84836349997204,383.8483814999927,3.0,383.8638720999588,386.8668758000131,386.85077999997884,386.85079779999796,386.85080120002385,V_nV,386.8668758000131,386.8668758000131,388.3520212000003,2,0,None,388.35227129998384,388.35227390000364,388.36844429996563,388.36844429996563,389.8559093999793,None,0,1,389.8561489999993,3.5,389.869822299981,393.3789868999738,393.35724479996134,393.35726179997437,393.3577018000069,,,,,64,1,1,001,300,20,1,2023-10-25_13h11.49.579,post-mask-only,2023.2.3,59.964584925706816,2023-10-25 13h11.55.511432 +0800,
Living_Things,processed\face\male_21_0.png,0,0,45,45,6,393.3789868999738,,393.3580319999601,393.3580354000442,393.3789868999738,393.89052189997165,393.90757819998544,393.9242027999717,393.9080524999881,393.9080670999829,393.9242027999717,394.25757999997586,394.2421740000136,394.24219229997834,2.0,394.25757999997586,396.25969509995775,396.2432922999724,396.2433039000025,396.2433049000101,V_nV,396.25969509995775,396.25969509995775,397.74437749997014,1,0,None,397.74463799997466,397.74464059999445,397.7609833999886,397.7609833999886,399.2460598999751,None,0,1,399.24639739998383,3.5,399.26259339996614,402.7675152999582,402.7500318000093,402.75004949996946,402.7504989999579,,,,,64,1,1,001,300,20,1,2023-10-25_13h11.49.579,post-mask-only,2023.2.3,59.964584925706816,2023-10-25 13h11.55.511432 +0800,
Nonliving_Things,processed\house\House36_0.png,0,0,46,46,165,402.7675152999582,,402.75081559998216,402.7508194000111,402.7675152999582,403.26660490001086,403.2835503999959,403.30014149995986,403.2840647000121,403.2840821999707,403.30014149995986,403.6336647999706,403.6212396000046,403.6212589999777,1.0,403.6336647999706,404.63454759999877,404.61821369995596,404.6182301999652,404.6182317000348,nV_V,404.63454759999877,404.63454759999877,406.1195960000041,1,0,None,406.1199232999934,406.11992810002994,406.1360878999694,406.1360878999694,407.6210289999726,None,0,1,407.62137790001,3.5,407.6376433999976,411.15771840000525,411.1248568999581,411.124874799978,411.1253214000026,,,,,64,1,1,001,300,20,1,2023-10-25_13h11.49.579,post-mask-only,2023.2.3,59.964584925706816,2023-10-25 13h11.55.511432 +0800,
Nonliving_Things,processed\house\House12_0.png,0,0,47,47,158,411.15771840000525,,411.12563530000625,411.12563870003214,411.15771840000525,411.6586046000011,411.67528129997663,411.6918317999807,411.6757988999598,411.6758161999751,411.6918317999807,412.0254022000008,412.00959470000817,412.0096062999801,3.0,412.0254022000008,415.02833709999686,415.01226629997836,415.0122829999891,415.012286400015,V_nV,415.02833709999686,415.02833709999686,416.51365539996186,2,0,None,416.5142074999749,416.51421430002665,416.5297922999598,416.5297922999598,418.0147709999583,None,0,1,418.0150449000066,3.0,418.0313909999677,421.0476028000121,421.0182642999571,421.01828149997164,421.0187270999886,,,,,64,1,1,001,300,20,1,2023-10-25_13h11.49.579,post-mask-only,2023.2.3,59.964584925706816,2023-10-25 13h11.55.511432 +0800,
Nonliving_Things,processed\house\House43_0.png,0,0,48,48,23,421.0476028000121,,421.0190348000033,421.0190382000292,421.0476028000121,421.5516166999587,421.5685702000046,421.5851346999989,421.56907570001204,421.5690927999676,421.5851346999989,421.9185274000047,421.9032050999813,421.90322279999964,1.5,421.9185274000047,423.4200562000042,423.40385459997924,423.40387159999227,423.4038746000151,nV_V,423.4200562000042,423.4200562000042,424.90503259998513,1,0,None,424.9052953000064,424.90529780002544,424.9216061999905,424.9216061999905,426.4064069999731,None,0,1,426.4067464999971,2.5,426.4230130999931,428.93051380000543,428.91080219997093,428.91082799999276,428.9114035000093,,,,,64,1,1,001,300,20,1,2023-10-25_13h11.49.579,post-mask-only,2023.2.3,59.964584925706816,2023-10-25 13h11.55.511432 +0800,
Nonliving_Things,processed\house\House71_0.png,0,0,49,49,196,428.93051380000543,,428.9118720999686,428.9118770000059,428.93051380000543,429.44271859998116,429.4597289999947,429.47633949999,429.46022670000093,429.4602484999923,429.47633949999,429.80975690000923,429.7942160000093,429.79423969995696,3.0,429.80975690000923,432.81282429996645,432.7966779000126,432.79669449996436,432.7966975000454,nV_V,432.81282429996645,432.81282429996645,434.29778319998877,1,0,None,434.29812990000937,434.29813539999304,434.3142533999635,434.3142533999635,435.79912989999866,None,0,1,435.7994661999983,2.0,435.81568820000393,437.8190156999626,437.80155549995834,437.8015739999828,437.80206650000764,,,,,64,1,1,001,300,20,1,2023-10-25_13h11.49.579,post-mask-only,2023.2.3,59.964584925706816,2023-10-25 13h11.55.511432 +0800,
Nonliving_Things,processed\house\House52_0.png,0,0,50,50,142,437.8190156999626,,437.80239969998365,437.80240310000954,437.8190156999626,438.3182090999908,438.3356778000016,438.3534775999724,438.3366052999627,438.336627200013,438.3534775999724,438.6852746999939,438.6698548999848,438.66987340000924,3.0,438.6852746999939,441.6882484999951,441.67209760000696,441.6721153999679,441.6721189999953,nV_V,441.6882484999951,441.6882484999951,443.1731352999923,1,0,None,443.173501399986,443.17350690002786,443.18973059998825,443.18973059998825,444.6747199000092,None,0,1,444.67505099996924,2.5,444.69131009996636,447.1971744999755,447.1775809999672,447.1775982999825,447.1780871999799,,,,,64,1,1,001,300,20,1,2023-10-25_13h11.49.579,post-mask-only,2023.2.3,59.964584925706816,2023-10-25 13h11.55.511432 +0800,
Living_Things,processed\face\female_50_0.png,0,0,51,51,139,447.1971744999755,,447.1784048000118,447.1784083000384,447.1971744999755,447.7108968999819,447.7279387000017,447.7445735000074,447.7284852999728,447.7285016999813,447.7445735000074,448.0779259999981,448.0627902999986,448.0628096999717,3.0,448.0779259999981,451.08123159996467,451.0659630000009,451.06604489998426,451.0660650000209,V_nV,451.08123159996467,451.08123159996467,452.56651500001317,1,0,None,452.5669921999797,452.56700249999994,452.5825180999818,452.5825180999818,454.0675896999892,None,0,1,454.0679243999766,3.5,454.08397209999384,457.58870109997224,457.57134439999936,457.57136169995647,457.57181709998986,452.5825180999818,452.5825180999818,,,64,1,1,001,300,20,1,2023-10-25_13h11.49.579,post-mask-only,2023.2.3,59.964584925706816,2023-10-25 13h11.55.511432 +0800,
Living_Things,processed\face\male_4_0.png,0,0,52,52,48,457.58870109997224,,457.5721396000008,457.57214860001113,457.58870109997224,458.08795489999466,458.10494599997764,458.12178960000165,458.1053549000062,458.1053669999819,458.12178960000165,458.4564767999691,458.44160640001064,458.4416313999682,2.5,458.4564767999691,460.95758559997194,460.9413185999729,460.9413361999905,460.94133940001484,nV_V,460.95758559997194,460.95758559997194,462.4424300999963,2,0,None,462.44270159996813,462.44270440004766,462.45897729997523,462.45897729997523,463.9439513999969,None,0,1,463.94427019997966,2.0,463.9611483999761,465.96435689995997,465.9463887999882,465.94640779995825,465.9468916999758,,,,,64,1,1,001,300,20,1,2023-10-25_13h11.49.579,post-mask-only,2023.2.3,59.964584925706816,2023-10-25 13h11.55.511432 +0800,
Nonliving_Things,processed\house\House34_0.png,0,0,53,53,167,465.96435689995997,,465.9472511999775,465.9472555000102,465.96435689995997,466.47959519998403,466.49665939999977,466.5134130999795,466.4971138999681,466.49712849996286,466.5134130999795,466.8467176000122,466.8310674999957,466.8310916000046,2.0,466.8467176000122,468.8487399999867,468.8324929999653,468.83250999997836,468.83251340000425,nV_V,468.8487399999867,468.8487399999867,470.3338749000104,1,0,None,470.3343181000091,470.33432580000954,470.3501496000099,470.3501496000099,471.8350742000039,None,0,1,471.8354314999888,2.5,471.8516447999864,474.36008479999145,474.3378881000099,474.3379068999784,474.33837119996315,,,,,64,1,1,001,300,20,1,2023-10-25_13h11.49.579,post-mask-only,2023.2.3,59.964584925706816,2023-10-25 13h11.55.511432 +0800,
Living_Things,processed\face\female_34_0.png,0,0,54,54,123,474.36008479999145,,474.33868089999305,474.33868450002046,474.36008479999145,474.8714181999676,474.8883292999817,474.90503049996914,474.88885310001206,474.8888710999745,474.90503049996914,475.23859829996945,475.222888099961,475.2229051999748,2.0,475.23859829996945,477.24048929999117,477.2242988999933,477.2243162000086,477.2243193000322,V_nV,477.24048929999117,477.24048929999117,478.72538079996593,1,0,None,478.725712799991,478.7257175000268,478.74190169997746,478.74190169997746,480.22698330000276,None,0,1,480.22731659997953,3.0,480.24341110000387,483.25214810000034,483.23088459996507,483.2309093999793,483.23150789999636,,,,,64,1,1,001,300,20,1,2023-10-25_13h11.49.579,post-mask-only,2023.2.3,59.964584925706816,2023-10-25 13h11.55.511432 +0800,
Nonliving_Things,processed\house\House18_0.png,0,0,55,55,189,483.25214810000034,,483.23184709995985,483.23185050004395,483.25214810000034,483.7634880999685,483.78043280000566,483.7972317999811,483.78070579998894,483.7807179999654,483.7972317999811,484.130996199965,484.11497840000084,484.11499309999635,1.5,484.130996199965,485.63216739997733,485.61600320000434,485.6160208999645,485.61602420004783,nV_V,485.63216739997733,485.63216739997733,487.11701069999253,1,0,None,487.1173715000041,487.1173776999931,487.1337598999962,487.1337598999962,488.6185423999559,None,0,1,488.61888329999056,2.0,488.6351195999887,490.6422840000014,490.6210657999618,490.6210838999832,490.6215360999922,,,,,64,1,1,001,300,20,1,2023-10-25_13h11.49.579,post-mask-only,2023.2.3,59.964584925706816,2023-10-25 13h11.55.511432 +0800,
Living_Things,processed\face\male_83_0.png,0,0,56,56,70,490.6422840000014,,490.6218615999678,490.6218651999952,490.6422840000014,491.1545871999697,491.17169349995675,491.18881219998,491.1724532999797,491.17248109995853,491.18881219998,491.5212845999631,491.50583099998767,491.50584989995696,1.5,491.5212845999631,493.0228746999637,493.0066388999694,493.00665329996264,493.0066555000376,V_nV,493.0228746999637,493.0228746999637,494.5079154999694,1,0,None,494.50832229998196,494.5083286000299,494.5242506999639,494.5242506999639,496.0092002999736,None,0,1,496.0095541999908,2.5,496.02581919997465,498.53084449999733,498.5121545000002,498.5121676999843,498.5125262999791,,,,,64,1,1,001,300,20,1,2023-10-25_13h11.49.579,post-mask-only,2023.2.3,59.964584925706816,2023-10-25 13h11.55.511432 +0800,
Living_Things,processed\face\male_3_0.png,0,0,57,57,105,498.53084449999733,,498.5127603999572,498.512765499996,498.53084449999733,499.0454809999792,499.06275240000105,499.07923639996443,499.06328999996185,499.0633068999741,499.07923639996443,499.41268359997775,499.39690100000007,499.3969192999648,1.5,499.41268359997775,500.9140591999749,500.8978802000056,500.89789739996195,500.89790030004224,V_nV,500.9140591999749,500.9140591999749,502.3989583000075,1,0,None,502.399326499959,502.39933210000163,502.4155175999622,502.4155175999622,503.9004692999879,None,0,1,503.90081640001154,3.0,503.91702739999164,506.9334624999901,506.90391669998644,506.9039335999987,506.90437750000274,,,,,64,1,1,001,300,20,1,2023-10-25_13h11.49.579,post-mask-only,2023.2.3,59.964584925706816,2023-10-25 13h11.55.511432 +0800,
Nonliving_Things,processed\house\House21_0.png,0,0,58,58,73,506.9334624999901,,506.90468350000447,506.9046870000311,506.9334624999901,507.4371947000036,507.4541278000106,507.470901499968,507.4546498999698,507.4546669999836,507.470901499968,507.80428320000647,507.7885015999782,507.7885205000057,1.0,507.80428320000647,508.8052701000124,508.78908879996743,508.7891028999584,508.78910560003715,nV_V,508.8052701000124,508.8052701000124,510.290113999974,1,0,None,510.29053479997674,510.29054050002014,510.3068320999737,510.3068320999737,511.7917083000066,None,0,1,511.79205349995755,3.5,511.80834419996245,515.3118215999566,515.2956470999634,515.295669199957,515.2962178000016,,,,,64,1,1,001,300,20,1,2023-10-25_13h11.49.579,post-mask-only,2023.2.3,59.964584925706816,2023-10-25 13h11.55.511432 +0800,
Living_Things,processed\face\male_89_0.png,0,0,59,59,185,515.3118215999566,,515.2966064999928,515.2966117000324,515.3118215999566,515.8122566000093,515.8294109000126,515.8458463000134,515.829922200006,515.8299394999631,515.8458463000134,516.1793584999978,516.1640799999586,516.1640965999686,2.0,516.1793584999978,518.1812773999991,518.1652236999944,518.1652404000051,518.1652441000333,V_nV,518.1812773999991,518.1812773999991,519.6662909999723,1,0,None,519.6666625000071,519.666668000049,519.6827887999825,519.6827887999825,521.1678402000107,None,0,1,521.1681741999928,3.0,521.1844693999738,524.2039127000025,524.1710841999738,524.1710951999994,524.1714302999899,,,,,64,1,1,001,300,20,1,2023-10-25_13h11.49.579,post-mask-only,2023.2.3,59.964584925706816,2023-10-25 13h11.55.511432 +0800,
Living_Things,processed\face\male_70_0.png,0,0,60,60,135,524.2039127000025,,524.171639600012,524.1716407000204,524.2039127000025,524.7045297999866,524.7214084999869,524.7380924999597,524.7219407999655,524.7219574999763,524.7380924999597,525.071586999984,525.0560989999794,525.0561172000016,1.0,525.071586999984,526.0725243999623,526.056399699999,526.0564231000026,526.0564266000292,V_nV,526.0725243999623,526.0725243999623,527.5573278999655,1,0,None,527.5577174999635,527.5577237000107,527.5740090999752,527.5740090999752,529.0589526999975,None,0,1,529.0592112999875,3.0,529.0756586999632,532.0804356999579,532.0623082999955,532.0623259000131,532.0627707999665,,,,,64,1,1,001,300,20,1,2023-10-25_13h11.49.579,post-mask-only,2023.2.3,59.964584925706816,2023-10-25 13h11.55.511432 +0800,
Living_Things,processed\face\female_61_0.png,0,0,61,61,118,532.0804356999579,,532.063089400006,532.0630930000334,532.0804356999579,532.5956683999975,532.6127656999743,532.6293168999837,532.6132809999981,532.6132979000104,532.6293168999837,532.9627388999797,532.9471571999602,532.9471755999839,2.5,532.9627388999797,535.4653759999783,535.4491267999983,535.4491474999813,535.4491518000141,V_nV,535.4653759999783,535.4653759999783,536.9501983000082,1,0,None,536.9504931999836,536.9504975000164,536.9667420999613,536.9667420999613,538.4516986999661,None,0,1,538.4520077999914,3.5,538.4680944999564,541.9797078999691,541.9553108999971,541.955321699963,541.9556054999703,,,,,64,1,1,001,300,20,1,2023-10-25_13h11.49.579,post-mask-only,2023.2.3,59.964584925706816,2023-10-25 13h11.55.511432 +0800,
Nonliving_Things,processed\house\3257879_House74_0.png,0,0,62,62,93,541.9797078999691,,541.9558176999562,541.9558187000221,541.9797078999691,542.4892910000053,542.5062638999661,542.522585299972,542.5070993999834,542.5071176000056,542.522585299972,542.8560594999581,542.8402415000019,542.8402559999959,2.5,542.8560594999581,545.3585045000073,545.3443094000104,545.3443303999957,545.34433360002,nV_V,545.3585045000073,545.3585045000073,546.8437070999644,1,0,None,546.8439892999595,546.8439933000482,546.8599725000095,546.8599725000095,548.3449091999792,None,0,1,548.3452542999876,3.0,548.3614463999984,551.3648151999805,551.3482033999753,551.3482194999815,551.3486501000007,546.8599725000095,546.8599725000095,,,64,1,1,001,300,20,1,2023-10-25_13h11.49.579,post-mask-only,2023.2.3,59.964584925706816,2023-10-25 13h11.55.511432 +0800,
Living_Things,processed\face\male_29_0.png,0,0,63,63,92,551.3648151999805,,551.3489474999951,551.3489506000187,551.3648151999805,551.8654460000107,551.8822280999739,551.8990891999565,551.883510399959,551.8835863000131,551.8990891999565,552.2319286999991,552.2171088999603,552.2171230000095,2.5,552.2319286999991,554.7344128999976,554.7182183999685,554.7182361999876,554.7182393000112,V_nV,554.7344128999976,554.7344128999976,556.2194740999839,1,0,None,556.2198256999836,556.2198311000247,556.2359385999735,556.2359385999735,557.7208152000094,None,0,1,557.7211694999714,3.5,557.7374986999785,561.2575911000022,561.2248295999598,561.2248525999603,561.2252955999575,,,,,64,1,1,001,300,20,1,2023-10-25_13h11.49.579,post-mask-only,2023.2.3,59.964584925706816,2023-10-25 13h11.55.511432 +0800,
Living_Things,processed\face\female_89_0.png,0,0,64,64,134,561.2575911000022,,561.2256130999885,561.2256166000152,561.2575911000022,561.7581170999911,561.7751287999563,561.792065799993,561.7756586999749,561.775676499994,561.792065799993,562.125175299996,562.1094808999915,562.1094956999877,3.0,562.125175299996,565.1281406999915,565.1127321000095,565.1127484999597,565.112751000037,V_nV,565.1281406999915,565.1281406999915,566.6130176999723,1,0,None,566.613379699993,566.6133853000356,566.6296958999592,566.6296958999592,568.1145790999872,None,0,1,568.1149070999818,2.5,568.1311732999748,570.6469224999892,570.6174409000087,570.6174589999719,570.617914100003,,,,,64,1,1,001,300,20,1,2023-10-25_13h11.49.579,post-mask-only,2023.2.3,59.964584925706816,2023-10-25 13h11.55.511432 +0800,
Living_Things,processed\face\male_51_0.png,0,0,65,65,99,570.6469224999892,,570.6182431000052,570.6182465000311,570.6469224999892,571.1508147999994,571.1677833999856,571.1849719999591,571.1683545999695,571.1683729999932,571.1849719999591,571.5178422000026,571.5022248000023,571.5022431999678,1.0,571.5178422000026,572.5187949999818,572.5033175999997,572.5033340000082,572.503336600028,nV_V,572.5187949999818,572.5187949999818,574.0037525999942,2,0,None,574.0040012999671,574.0040037000435,574.0203814000124,574.0203814000124,575.5058124999632,None,0,1,575.5063696999568,3.5,575.5220438999822,579.0255933000008,579.0093751999666,579.0093923999812,579.0098471000092,,,,,64,1,1,001,300,20,1,2023-10-25_13h11.49.579,post-mask-only,2023.2.3,59.964584925706816,2023-10-25 13h11.55.511432 +0800,
Living_Things,processed\face\female_78_0.png,0,0,66,66,46,579.0255933000008,,579.0101712999749,579.0101749000023,579.0255933000008,579.5259514999925,579.5428189999657,579.5594259999925,579.5433483999805,579.5433653999935,579.5594259999925,579.8929844999802,579.8767442000099,579.8767550999764,3.0,579.8929844999802,582.8959778000135,582.8796414000099,582.8796581999632,582.8796616000473,nV_V,582.8959778000135,582.8959778000135,584.3808082999894,2,0,None,584.3811572999693,584.381162900012,584.3974493999849,584.3974493999849,585.8823761999956,None,0,1,585.8827075999579,3.5,585.8988766999682,589.4059002999566,589.3862873999751,589.3863055999973,589.3867494000006,,,,,64,1,1,001,300,20,1,2023-10-25_13h11.49.579,post-mask-only,2023.2.3,59.964584925706816,2023-10-25 13h11.55.511432 +0800,
Living_Things,processed\face\female_80_0.png,0,0,67,67,136,589.4059002999566,,589.3870651999605,589.3870686000446,589.4059002999566,589.9196066999575,589.9365487999748,589.9531511999667,589.937088000006,589.9371054999647,589.9531511999667,590.2864599999739,590.2710397999617,590.2710511999903,2.5,590.2864599999739,592.7891850000015,592.7727690999745,592.7727870999952,592.7727904000203,V_nV,592.7891850000015,592.7891850000015,594.2741944000009,1,0,None,594.2746697000111,594.2746760000009,594.2906720999745,594.2906720999745,595.7755674999789,None,0,1,595.7759237999562,3.0,595.7920973,598.7961580000119,598.7789279000135,598.7789454999729,598.7793640999589,,,,,64,1,1,001,300,20,1,2023-10-25_13h11.49.579,post-mask-only,2023.2.3,59.964584925706816,2023-10-25 13h11.55.511432 +0800,
Nonliving_Things,processed\house\House57_0.png,0,0,68,68,28,598.7961580000119,,598.7796611000085,598.7796644000337,598.7961580000119,599.2956503999885,599.3125841000001,599.3291748999618,599.3131005999749,599.3131174999871,599.3291748999618,599.6626393999904,599.6470613999991,599.6470794999623,2.5,599.6626393999904,602.1651258000056,602.1490431000129,602.1490602999693,602.1490632999921,nV_V,602.1651258000056,602.1651258000056,603.6501653000014,1,0,None,603.6505690999911,603.650575000036,603.6666903999867,603.6666903999867,605.151534900011,None,0,1,605.1518720999593,2.0,605.1681288999971,607.1819837999647,607.1538598999614,607.1538720999961,607.1541818999685,,,,,64,1,1,001,300,20,1,2023-10-25_13h11.49.579,post-mask-only,2023.2.3,59.964584925706816,2023-10-25 13h11.55.511432 +0800,
Living_Things,processed\face\male_62_0.png,0,0,69,69,181,607.1819837999647,,607.154394000012,607.1543952000211,607.1819837999647,607.6872269999585,607.7042408999987,607.7210856999736,607.7047709999606,607.7047879999736,607.7210856999736,608.0543779999716,608.0387228999753,608.0387410999974,1.5,608.0543779999716,609.5559017999913,609.5395260999794,609.5395381000126,609.5395394000225,nV_V,609.5559017999913,609.5559017999913,611.0407606000081,2,0,None,611.041107899975,611.0411134000169,611.0572859999957,611.0572859999957,612.5422268999973,None,0,1,612.5427404000075,2.5,612.5590119999833,615.0616668000002,615.0451528999838,615.0451706000022,615.0456541999592,,,,,64,1,1,001,300,20,1,2023-10-25_13h11.49.579,post-mask-only,2023.2.3,59.964584925706816,2023-10-25 13h11.55.511432 +0800,
Nonliving_Things,processed\house\House29_0.png,0,0,70,70,68,615.0616668000002,,615.0459657000029,615.0459692000295,615.0616668000002,615.5621315999888,615.5787254999741,615.5953541999916,615.5791114000021,615.5791369999642,615.5953541999916,615.9288480000105,615.91340640001,615.9134309999645,2.5,615.9288480000105,618.431714300008,618.4153213999816,618.4153370999848,618.4153401000076,V_nV,618.431714300008,618.431714300008,619.9162731000106,2,0,None,619.9165206999751,619.9165231999941,619.9328514999943,619.9328514999943,621.4178426999715,None,0,1,621.4181539000128,3.5,621.4343435000046,624.9417173999827,624.9216717999661,624.9216895999853,624.9221337999916,,,,,64,1,1,001,300,20,1,2023-10-25_13h11.49.579,post-mask-only,2023.2.3,59.964584925706816,2023-10-25 13h11.55.511432 +0800,
Nonliving_Things,processed\house\House85_0.png,0,0,71,71,17,624.9417173999827,,624.9224589999649,624.922462699993,624.9417173999827,625.4549839000101,625.4719983999967,625.4886438999674,625.4725467999815,625.4725633999915,625.4886438999674,625.8220368999755,625.8064900999889,625.8065092999605,1.5,625.8220368999755,627.3235898999847,627.3073797000106,627.3073971999693,627.3074001999921,nV_V,627.3235898999847,627.3235898999847,628.8085726000136,1,0,None,628.8088333999622,628.8088362000417,628.8251027999795,628.8251027999795,630.309959199978,None,0,1,630.3102822999936,3.5,630.3265211000107,633.8326684999629,633.81386200001,633.8138857999584,633.8143294999609,,,,,64,1,1,001,300,20,1,2023-10-25_13h11.49.579,post-mask-only,2023.2.3,59.964584925706816,2023-10-25 13h11.55.511432 +0800,
Living_Things,processed\face\female_65_0.png,0,0,72,72,193,633.8326684999629,,633.8146573000122,633.8146611000411,633.8326684999629,634.3472520000068,634.3641473999596,634.380921199976,634.3646736000082,634.3646913999692,634.380921199976,634.7142757999827,634.6987384000095,634.6987565999734,1.5,634.7142757999827,636.2158877999755,636.1997789999587,636.1998034999706,636.199809600017,V_nV,636.2158877999755,636.2158877999755,637.7007105000084,1,0,None,637.7010588999838,637.7010652000317,637.7172570999828,637.7172570999828,639.2022079000017,None,0,1,639.2025418999838,3.0,639.2188888000092,642.2367907000007,642.2055974999676,642.2056151999859,642.2060398999602,,,,,64,1,1,001,300,20,1,2023-10-25_13h11.49.579,post-mask-only,2023.2.3,59.964584925706816,2023-10-25 13h11.55.511432 +0800,
Nonliving_Things,processed\house\House31_0.png,0,0,73,73,57,642.2367907000007,,642.2063379999599,642.2063413000433,642.2367907000007,642.7388837999897,642.7559067999828,642.7726045000018,642.7563231000095,642.7563361999928,642.7726045000018,643.1059833999607,643.0902441999642,643.0902596999658,1.0,643.1059833999607,644.1071622999734,644.0908135999925,644.0908311000094,644.0908344000345,V_nV,644.1071622999734,644.1071622999734,645.5919345999719,2,0,None,645.5922838000115,645.5922893999959,645.608408399974,645.608408399974,647.0965970999678,None,0,1,647.0968464000034,3.5,647.1099960999563,650.6159911999712,650.597326099989,650.5973442000104,650.5977921999875,,,,,64,1,1,001,300,20,1,2023-10-25_13h11.49.579,post-mask-only,2023.2.3,59.964584925706816,2023-10-25 13h11.55.511432 +0800,
Nonliving_Things,processed\house\House89_0.png,0,0,74,74,161,650.6159911999712,,650.5981055999873,650.5981092000147,650.6159911999712,651.1309586999705,651.1476025999873,651.1642730999738,651.1481150999898,651.1481330000097,651.1642730999738,651.4977200999856,651.4820998999639,651.4821177999838,1.0,651.4977200999856,652.4986314999987,652.4828217999893,652.482841399964,652.4828447000473,V_nV,652.4986314999987,652.4986314999987,653.9838819999713,2,0,None,653.9842581999837,653.984264400031,654.0026030999725,654.0026030999725,655.4851189999608,None,0,1,655.4854468000121,2.0,655.5016343999887,657.5113791999756,657.487594700011,657.4876171000069,657.4881681000115,,,,,64,1,1,001,300,20,1,2023-10-25_13h11.49.579,post-mask-only,2023.2.3,59.964584925706816,2023-10-25 13h11.55.511432 +0800,
Living_Things,processed\face\male_54_0.png,0,0,75,75,100,657.5113791999756,,657.4885648000054,657.4885705000488,657.5113791999756,658.0208158000023,658.0377829999779,658.0546316999826,658.038452000008,658.0384737999993,658.0546316999826,658.3879572000005,658.3721588999615,658.3721725000069,2.5,658.3879572000005,660.8903595999582,660.8741227999562,660.8741326999734,660.8741336000385,V_nV,660.8903595999582,660.8903595999582,662.3753288000007,1,0,None,662.3757060999633,662.3757120000082,662.3919079999905,662.3919079999905,663.8768165999791,None,0,1,663.8771127999644,2.0,663.8934518999886,665.8967722000089,665.8791841999628,665.8792024999857,665.8796436999692,,,,,64,1,1,001,300,20,1,2023-10-25_13h11.49.579,post-mask-only,2023.2.3,59.964584925706816,2023-10-25 13h11.55.511432 +0800,
Nonliving_Things,processed\house\House55_0.png,0,0,76,76,110,665.8967722000089,,665.8799590999843,665.8799627000117,665.8967722000089,666.3958861999563,666.4130550000118,666.4295817000093,666.4135825000121,666.413600299973,666.4295817000093,666.763046899985,666.7473147999845,666.747332400002,2.0,666.763046899985,668.7656130999676,668.7488647999708,668.7488825999899,668.7488861000165,V_nV,668.7656130999676,668.7656130999676,670.249666699965,2,0,None,670.2499125999748,670.249914999993,670.2663900000043,670.2663900000043,671.7512633999577,None,0,1,671.7516027999809,3.5,671.7680294999736,675.2853490000125,675.2551965999883,675.2552138000028,675.255652599968,,,,,64,1,1,001,300,20,1,2023-10-25_13h11.49.579,post-mask-only,2023.2.3,59.964584925706816,2023-10-25 13h11.55.511432 +0800,
Nonliving_Things,processed\house\House70_0.png,0,0,77,77,116,675.2853490000125,,675.255963100004,675.255973900028,675.2853490000125,675.7886022999883,675.8057292999583,675.8222861000104,675.8062825999805,675.8062995999935,675.8222861000104,676.1556612999993,676.140239099972,676.1402566999895,1.0,676.1556612999993,677.1567193999654,677.1405542999855,677.1405705999932,677.1405735000153,nV_V,677.1567193999654,677.1567193999654,678.6416649000021,1,0,None,678.642009800009,678.6420151999919,678.6581773000071,678.6581773000071,680.1430447999737,None,0,1,680.1433726999676,3.0,680.1595840000082,683.162829399982,683.146314899961,683.1463266999926,683.1466527999728,,,,,64,1,1,001,300,20,1,2023-10-25_13h11.49.579,post-mask-only,2023.2.3,59.964584925706816,2023-10-25 13h11.55.511432 +0800,
Living_Things,processed\face\female_52_0.png,0,0,78,78,60,683.162829399982,,683.146873199963,683.1468742000288,683.162829399982,683.6630963999778,683.6801527999924,683.6969737999607,683.6806425999966,683.6806602999568,683.6969737999607,684.0303088999935,684.0145056999754,684.0145236999961,1.0,684.0303088999935,685.031285199977,685.0163786999765,685.016395899991,685.0163991000154,nV_V,685.031285199977,685.031285199977,686.5164988999604,2,0,None,686.5168296999764,686.5168381000403,686.5326110000024,686.5326110000024,688.0175408999785,None,0,1,688.0178861999884,2.5,688.034176599991,690.5412626999896,690.5204976999667,690.5205150999827,690.5209740999853,686.5326110000024,686.5326110000024,,,64,1,1,001,300,20,1,2023-10-25_13h11.49.579,post-mask-only,2023.2.3,59.964584925706816,2023-10-25 13h11.55.511432 +0800,
Nonliving_Things,processed\house\House1_0.png,0,0,79,79,160,690.5412626999896,,690.5212884999928,690.5212920000195,690.5412626999896,691.0539172999561,691.0712239000131,691.0885675000027,691.0720710000023,691.0720964999637,691.0885675000027,691.4208953999914,691.4052768999827,691.4052946000011,1.5,691.4208953999914,692.9223918999778,692.9061942999833,692.9062112999964,692.9062146000215,nV_V,692.9223918999778,692.9223918999778,694.4073294000118,1,0,None,694.4075811000075,694.4075835000258,694.4238723999588,694.4238723999588,695.9088062999654,None,0,1,695.9091065999819,2.5,695.9254338999745,698.4295579000027,698.4116853000014,698.4117025999585,698.4121489999816,,,,,64,1,1,001,300,20,1,2023-10-25_13h11.49.579,post-mask-only,2023.2.3,59.964584925706816,2023-10-25 13h11.55.511432 +0800,
Nonliving_Things,processed\house\House73_0.png,0,0,80,80,38,698.4295579000027,,698.4124554999871,698.4124592000153,698.4295579000027,698.945241999987,698.9619785000104,698.9786693999777,698.9624861999764,698.9625039999955,698.9786693999777,699.3121046999586,699.2964529999881,699.2964712000103,2.0,699.3121046999586,701.314180299989,701.2979063999956,701.2979204999865,701.2979225000017,V_nV,701.314180299989,701.314180299989,702.7990160000045,2,0,None,702.799384599959,702.7993901000009,702.8155335999909,702.8155335999909,704.3005264999811,None,0,1,704.3008583000046,2.5,704.3170107000042,706.8290145999636,706.8035139999702,706.8035317999893,706.8039793999633,,,,,64,1,1,001,300,20,1,2023-10-25_13h11.49.579,post-mask-only,2023.2.3,59.964584925706816,2023-10-25 13h11.55.511432 +0800,
Living_Things,processed\face\male_5_0.png,0,0,81,81,162,706.8290145999636,,706.8042968999944,706.8043005000218,706.8290145999636,707.3369219999877,707.3536404999904,707.3703881999827,707.3541527999914,707.3541698000045,707.3703881999827,707.7039956999943,707.6882718999987,707.6882899999619,1.5,707.7039956999943,709.2053196000052,709.1891855999711,709.1892031999887,709.1892068000161,V_nV,709.2053196000052,709.2053196000052,710.6903381999582,1,0,None,710.6906899999594,710.6906957000028,710.7067778999917,710.7067778999917,712.1917415999924,None,0,1,712.1920348000131,2.0,712.2084042999777,714.2119372999878,714.1940870999824,714.1941043999977,714.1945595999714,,,,,64,1,1,001,300,20,1,2023-10-25_13h11.49.579,post-mask-only,2023.2.3,59.964584925706816,2023-10-25 13h11.55.511432 +0800,
Nonliving_Things,processed\house\House91_0.png,0,0,82,82,184,714.2119372999878,,714.1948760999949,714.1948799000238,714.2119372999878,714.7276868000044,714.7444342999952,714.7611599999946,714.744959099975,714.7449757999857,714.7611599999946,715.0949522999581,715.0788382999599,715.0788565999828,2.5,715.0949522999581,717.5969663999858,717.5808711000136,717.5808881999692,717.580891199992,V_nV,717.5969663999858,717.5969663999858,719.0819504999672,2,0,None,719.0822910999996,719.0822967000422,719.0986147999647,719.0986147999647,720.5839154999703,None,0,1,720.5846724999719,3.0,720.6002468999941,723.6053465000005,723.5869482000126,723.5869651999674,723.587413900008,,,,,64,1,1,001,300,20,1,2023-10-25_13h11.49.579,post-mask-only,2023.2.3,59.964584925706816,2023-10-25 13h11.55.511432 +0800,
Living_Things,processed\face\female_66_0.png,0,0,83,83,63,723.6053465000005,,723.5877141999663,723.5877235000371,723.6053465000005,724.120208999957,724.1373123999801,724.1538429000066,724.1378460999695,724.1378627999802,724.1538429000066,724.4883593000122,724.4737549999845,724.4737889000098,1.0,724.4883593000122,725.4882795999874,725.4720304000075,725.47204709996,725.4720506000449,V_nV,725.4882795999874,725.4882795999874,726.9732283999911,1,0,None,726.9735800999915,726.9735858000349,726.9896746999584,726.9896746999584,728.4745952999801,None,0,1,728.474937299965,3.5,728.491274799977,732.0058991999831,731.9785087999771,731.9785269999993,731.978955300001,,,,,64,1,1,001,300,20,1,2023-10-25_13h11.49.579,post-mask-only,2023.2.3,59.964584925706816,2023-10-25 13h11.55.511432 +0800,
Living_Things,processed\face\male_53_0.png,0,0,84,84,40,732.0058991999831,,731.9792574999738,731.9792606999981,732.0058991999831,732.5118615999818,732.5289388999809,732.5456740999944,732.5294454999967,732.5294622000074,732.5456740999944,732.8789346999838,732.8644893000019,732.8645095999818,3.0,732.8789346999838,735.8820080999867,735.8658800999983,735.8659049000125,735.8659103999962,V_nV,735.8820080999867,735.8820080999867,737.3669773999718,1,0,None,737.3673235999886,737.3673416000092,737.3835801999667,737.3835801999667,738.8683320999844,None,0,1,738.8686670999741,2.5,738.8848721999675,741.3911665999913,741.3712814999744,741.3712985999882,741.3717272999929,,,,,64,1,1,001,300,20,1,2023-10-25_13h11.49.579,post-mask-only,2023.2.3,59.964584925706816,2023-10-25 13h11.55.511432 +0800,
Nonliving_Things,processed\house\House25_0.png,0,0,85,85,109,741.3911665999913,,741.3720294999657,741.3720329999924,741.3911665999913,741.887887799996,741.904898400011,741.9217004000093,741.9052998999832,741.9053110000095,741.9217004000093,742.2552166999667,742.2394043999957,742.2394226999604,1.0,742.2552166999667,743.2559324000031,743.2399786000024,743.2399953999557,743.2399992000428,V_nV,743.2559324000031,743.2559324000031,744.7412281999714,2,0,None,744.7415493999724,744.7415526999976,744.7574405999621,744.7574405999621,746.2425189999631,None,0,1,746.2428506999859,2.0,746.2588819999946,748.2612038999796,748.2448655999615,748.2448833999806,748.2453429999878,,,,,64,1,1,001,300,20,1,2023-10-25_13h11.49.579,post-mask-only,2023.2.3,59.964584925706816,2023-10-25 13h11.55.511432 +0800,
Nonliving_Things,processed\house\House77_0.png,0,0,86,86,34,748.2612038999796,,748.2456517000101,748.245655100036,748.2612038999796,748.7614932999713,748.7784742999938,748.7949539999827,748.7789661000133,748.778979499999,748.7949539999827,749.1285962999682,749.1130656999885,749.1130836000084,1.0,749.1285962999682,750.1294944999972,750.1135480999947,750.1135731000104,750.1135786999948,V_nV,750.1294944999972,750.1294944999972,751.6145451999619,2,0,None,751.6148051999626,751.6148078000406,751.6308632,751.6308632,753.1159928999841,None,0,1,753.1163087000023,3.0,753.1325218999991,756.1392907999689,756.1193028999842,756.119320400001,756.1197682999773,,,,,64,1,1,001,300,20,1,2023-10-25_13h11.49.579,post-mask-only,2023.2.3,59.964584925706816,2023-10-25 13h11.55.511432 +0800,
Living_Things,processed\face\male_28_0.png,0,0,87,87,188,756.1392907999689,,756.1200789999566,756.1200825000415,756.1392907999689,756.6527184000006,756.6697554999846,756.6862966999761,756.6702798999613,756.6702969999751,756.6862966999761,757.0204688999802,757.0056924999808,757.005720999965,2.0,757.0204688999802,759.0218649999588,759.0054484999855,759.0054654999985,759.0054686000221,nV_V,759.0218649999588,759.0218649999588,760.5066472999752,2,0,None,760.5069632999948,760.5069675000268,760.5232012000051,760.5232012000051,762.0085447999882,None,0,1,762.0089546999661,2.5,762.0258414999698,764.5276663000113,764.5111017999589,764.5111294999951,764.511582600011,,,,,64,1,1,001,300,20,1,2023-10-25_13h11.49.579,post-mask-only,2023.2.3,59.964584925706816,2023-10-25 13h11.55.511432 +0800,
Nonliving_Things,processed\house\House100_0.png,0,0,88,88,44,764.5276663000113,,764.5118956000078,764.5118991000345,764.5276663000113,765.0276913999696,765.0447505000047,765.0613589999848,765.0452832999872,765.0453011000063,765.0613589999848,765.3948125999887,765.3792128000059,765.3792302999645,1.0,765.3948125999887,766.395710599958,766.3794309999794,766.379448599997,766.3794516000198,V_nV,766.395710599958,766.395710599958,767.8808243999956,2,0,None,767.8811870999634,767.8811929000076,767.8972075000056,767.8972075000056,769.382239700004,None,0,1,769.3826299000066,3.5,769.3989051000099,772.9047988000093,772.886074399983,772.8860923000029,772.8865159999696,,,,,64,1,1,001,300,20,1,2023-10-25_13h11.49.579,post-mask-only,2023.2.3,59.964584925706816,2023-10-25 13h11.55.511432 +0800,
Nonliving_Things,processed\house\House7_0.png,0,0,89,89,131,772.9047988000093,,772.8868163999869,772.8868196000112,772.9047988000093,773.4194753000047,773.4363844000036,773.4529909999692,773.4368919999688,773.4369090999826,773.4529909999692,773.7864330000011,773.7709479999612,773.7709659999819,2.0,773.7864330000011,775.7884223999572,775.7723341999808,775.7723501999862,775.772352800006,nV_V,775.7884223999572,775.7884223999572,777.2736835000105,1,0,None,777.2741410000017,777.2741491000052,777.2911297999672,777.2911297999672,778.7753127999604,None,0,1,778.775595199957,3.5,778.7914464999922,782.3101434999844,782.2790692999843,782.2790886999574,782.2795640999684,,,,,64,1,1,001,300,20,1,2023-10-25_13h11.49.579,post-mask-only,2023.2.3,59.964584925706816,2023-10-25 13h11.55.511432 +0800,
Living_Things,processed\face\male_32_0.png,0,0,90,90,36,782.3101434999844,,782.2798946999828,782.279898400011,782.3101434999844,782.8121720000054,782.8290359000093,782.8459430999937,782.8295600999845,782.8295775000006,782.8459430999937,783.1815482999664,783.1637959000072,783.1638144999743,1.0,783.1815482999664,784.1968713999959,784.1807386999717,784.1807562999893,784.1807594000129,nV_V,784.1968713999959,784.1968713999959,785.6818118999945,2,0,None,785.6821649000049,785.6821705000475,785.6983174000052,785.6983174000052,787.1832637999905,None,0,1,787.1835951000103,3.5,787.199807099998,790.7137378999614,790.6870690999785,790.6870803000056,790.6873946000123,,,,,64,1,1,001,300,20,1,2023-10-25_13h11.49.579,post-mask-only,2023.2.3,59.964584925706816,2023-10-25 13h11.55.511432 +0800,
Nonliving_Things,processed\house\House15_0.png,0,0,91,91,96,790.7137378999614,,790.6876099999645,790.6876111000311,790.7137378999614,791.2204469999997,791.2375003999914,791.2540912000113,791.2380254999734,791.2380427999888,791.2540912000113,791.5881855000043,791.5752958999947,791.5753398999805,2.5,791.5881855000043,794.0903140999726,794.0738515999983,794.0738688000129,794.0738718000357,V_nV,794.0903140999726,794.0903140999726,795.5750256999745,2,0,None,795.5753772999742,795.5753830000176,795.5915411000024,795.5915411000024,797.076597999956,None,0,1,797.0771232999978,3.5,797.0931403999566,800.6015224999865,800.5804838999757,800.5805017999955,800.5809407999623,,,,,64,1,1,001,300,20,1,2023-10-25_13h11.49.579,post-mask-only,2023.2.3,59.964584925706816,2023-10-25 13h11.55.511432 +0800,
Living_Things,processed\face\female_88_0.png,0,0,92,92,98,800.6015224999865,,800.5812534999568,800.5812569000409,800.6015224999865,801.1138447999838,801.1307762999786,801.1473153000115,801.1313099999679,801.1313282999909,801.1473153000115,801.4808098999783,801.4650655000005,801.4650774999755,2.0,801.4808098999783,803.4827452999889,803.4666090999963,803.4666260000085,803.4666292000329,nV_V,803.4827452999889,803.4827452999889,804.9677080999827,2,0,None,804.9680673999828,804.9680730000255,804.9842516999925,804.9842516999925,806.4691932999995,None,0,1,806.4695222000009,3.5,806.4857355999993,809.9906465999666,809.973040599958,809.973056799965,809.9734675000072,,,,,64,1,1,001,300,20,1,2023-10-25_13h11.49.579,post-mask-only,2023.2.3,59.964584925706816,2023-10-25 13h11.55.511432 +0800,
Nonliving_Things,processed\house\House87_0.png,0,0,93,93,171,809.9906465999666,,809.9737535999739,809.9737563999952,809.9906465999666,810.4897810000111,810.506671399984,810.5233282999834,810.507203999965,810.5072206999757,810.5233282999834,810.8567558999639,810.8412040999974,810.8412235999713,2.0,810.8567558999639,812.8587971999659,812.8425972000114,812.8426141999662,812.8426174999913,V_nV,812.8587971999659,812.8587971999659,814.3436689999653,2,0,None,814.3440220999764,814.3440285000252,814.3603423999739,814.3603423999739,815.845295600011,None,0,1,815.8456354999798,3.0,815.8617512999917,818.8672243999899,818.8485832999577,818.8486014999798,818.8490496999584,,,,,64,1,1,001,300,20,1,2023-10-25_13h11.49.579,post-mask-only,2023.2.3,59.964584925706816,2023-10-25 13h11.55.511432 +0800,
Nonliving_Things,processed\house\House88_0.png,0,0,94,94,89,818.8672243999899,,818.8493725999724,818.8493760999991,818.8672243999899,819.3818047000095,819.3988994999672,819.4155169999576,819.3994211999816,819.3994387999992,819.4155169999576,819.748938100005,819.7332994999597,819.7333152999636,1.0,819.748938100005,820.7501228000037,820.7338074999861,820.7338237999938,820.7338267000159,nV_V,820.7501228000037,820.7501228000037,822.2350463999901,1,0,None,822.2354088999564,822.2354143999983,822.2515446000034,822.2515446000034,823.7363727999618,None,0,1,823.7367006999557,3.5,823.7529528999585,827.2702723999973,827.2402968999813,827.2403137999936,827.2407589000068,,,,,64,1,1,001,300,20,1,2023-10-25_13h11.49.579,post-mask-only,2023.2.3,59.964584925706816,2023-10-25 13h11.55.511432 +0800,
Living_Things,processed\face\female_95_0.png,0,0,95,95,113,827.2702723999973,,827.2410688999807,827.2410726000089,827.2702723999973,827.7737741000019,827.7910519999568,827.8087039999664,827.7917832999956,827.7918015999603,827.8087039999664,828.1407327000052,828.1251536000054,828.1251724999747,1.5,828.1407327000052,829.6422449999955,829.6259332000045,829.6259445999749,829.62594550004,nV_V,829.6422449999955,829.6422449999955,831.1281415999983,2,0,None,831.1287543000071,831.128765600035,831.1438187999884,831.1438187999884,832.6287415999686,None,0,1,832.6290675000055,3.0,832.6452014999813,835.6512371000135,835.6320209999685,835.6320385999861,835.6324913999997,,,,,64,1,1,001,300,20,1,2023-10-25_13h11.49.579,post-mask-only,2023.2.3,59.964584925706816,2023-10-25 13h11.55.511432 +0800,
Living_Things,processed\face\male_10_0.png,0,0,96,96,7,835.6512371000135,,835.6328151999624,835.6328192999936,835.6512371000135,836.1655811999808,836.1822412000038,836.1989807999926,836.1826466000057,836.1826580999768,836.1989807999926,836.5325382999727,836.5167657000129,836.5167843999807,2.0,836.5325382999727,838.534380099969,838.5191999999806,838.5192162999883,838.5192184000043,nV_V,838.534380099969,838.534380099969,840.0193461999879,2,0,None,840.0196997000021,840.0197054000455,840.0358180999756,840.0358180999756,841.5206965999678,None,0,1,841.5210010999581,2.0,841.5375747999642,843.5395363999996,843.5232834999915,843.5233014000114,843.5237249999773,,,,,64,1,1,001,300,20,1,2023-10-25_13h11.49.579,post-mask-only,2023.2.3,59.964584925706816,2023-10-25 13h11.55.511432 +0800,
Nonliving_Things,processed\house\House53_0.png,0,0,97,97,112,843.5395363999996,,843.5240292999661,843.5240323000471,843.5395363999996,844.0399581000092,844.0567872999818,844.0734732999699,844.0573039999581,844.057321899978,844.0734732999699,844.4069732999778,844.3914800999919,844.3914977000095,2.5,844.4069732999778,846.909496599983,846.8933272999711,846.8933453999925,846.8933484000154,nV_V,846.909496599983,846.909496599983,848.394300999993,1,0,None,848.3945467000012,848.3945490000187,848.4109375000116,848.4109375000116,849.8959295999957,None,0,1,849.8962570999865,3.0,849.9124018999864,852.932555700012,852.8993070999859,852.8993230999913,852.8997310000123,,,,,64,1,1,001,300,20,1,2023-10-25_13h11.49.579,post-mask-only,2023.2.3,59.964584925706816,2023-10-25 13h11.55.511432 +0800,
Living_Things,processed\face\male_57_0.png,0,0,98,98,14,852.932555700012,,852.9000241999747,852.9000267999945,852.932555700012,853.4326829999918,853.4497375999927,853.4662650999962,853.4502438000054,853.4502601000131,853.4662650999962,853.7996405999875,853.783999599982,853.7840174000012,1.5,853.7996405999875,855.3011515999679,855.2850143999676,855.2850312999799,855.2850344000035,nV_V,855.3011515999679,855.3011515999679,856.7860979000106,2,0,None,856.7864493000088,856.7864547999925,856.8026328000124,856.8026328000124,858.2908991999575,None,0,1,858.2912417000043,3.5,858.3041403999669,861.8241773999762,861.7915220999857,861.7915408000117,861.7919966999907,,,,,64,1,1,001,300,20,1,2023-10-25_13h11.49.579,post-mask-only,2023.2.3,59.964584925706816,2023-10-25 13h11.55.511432 +0800,
Nonliving_Things,processed\house\House72_0.png,0,0,99,99,69,861.8241773999762,,861.7923320999835,861.7923355000094,861.8241773999762,862.3247145999921,862.3433881999808,862.3599430999602,862.3441302999854,862.3441466999939,862.3599430999602,862.6917626999784,862.6762271999614,862.6762445999775,1.0,862.6917626999784,863.6928654999938,863.6766678999993,863.6766854999587,863.6766889000428,V_nV,863.6928654999938,863.6928654999938,865.1777649999713,2,0,None,865.1781458999612,865.1781515000039,865.1943514999584,865.1943514999584,866.6795478999848,None,0,1,866.679880599957,3.5,866.695959899982,870.2017357999575,870.1830562999821,870.1830723999883,870.1835197999608,,,,,64,1,1,001,300,20,1,2023-10-25_13h11.49.579,post-mask-only,2023.2.3,59.964584925706816,2023-10-25 13h11.55.511432 +0800,
Nonliving_Things,processed\house\House67_0.png,0,0,100,100,197,870.2017357999575,,870.1838337999652,870.1838371999911,870.2017357999575,870.7164724000031,870.733491699968,870.7500655999756,870.7340099999565,870.7340268999687,870.7500655999756,871.0836020999704,871.0690456999582,871.069064499985,2.0,871.0836020999704,873.085606699984,873.0695967999636,873.0696145999827,873.0696226000437,V_nV,873.085606699984,873.085606699984,874.5709943000111,2,0,None,874.5715109999874,874.5715174000361,874.5871281999862,874.5871281999862,876.0719061999698,None,0,1,876.0722400000086,2.0,876.0885272999876,878.1047581000021,878.0743131999625,878.074329999974,878.0747390000033,,,,,64,1,1,001,300,20,1,2023-10-25_13h11.49.579,post-mask-only,2023.2.3,59.964584925706816,2023-10-25 13h11.55.511432 +0800,
Nonliving_Things,processed\house\House6_0.png,0,0,101,101,76,878.1047581000021,,878.0751190999872,878.0751202999963,878.1047581000021,878.6078850000049,878.6247865000041,878.6426293000113,878.6252010999597,878.6252123999875,878.6426293000113,878.9747492999886,878.9591018999927,878.9591200999566,2.0,878.9747492999886,880.9768201999832,880.9605706000002,880.9605882999604,880.9605916000437,nV_V,880.9768201999832,880.9768201999832,882.4637548999744,1,0,None,882.4641351999599,882.4641379000386,882.480276199989,882.480276199989,883.963166099973,None,0,1,883.9635112999822,3.5,883.9798531999695,887.4983632999938,887.467914399982,887.46794209996,887.468587899988,,,,,64,1,1,001,300,20,1,2023-10-25_13h11.49.579,post-mask-only,2023.2.3,59.964584925706816,2023-10-25 13h11.55.511432 +0800,
Living_Things,processed\face\female_5_0.png,0,0,102,102,120,887.4983632999938,,887.4691047999659,887.4691089999978,887.4983632999938,888.0003769999603,888.0174151000101,888.0339972999645,888.0179251999944,888.0179431999568,888.0339972999645,888.3676552000106,888.3518859999604,888.3519037999795,3.0,888.3676552000106,891.3705534999608,891.3543069000007,891.3543241999578,891.3543274000403,V_nV,891.3705534999608,891.3705534999608,892.8553851000033,1,0,None,892.8557457000134,892.8557514999993,892.8718218999566,892.8718218999566,894.3569594,None,0,1,894.3572734000045,2.5,894.3734438999672,896.8873287999886,896.8595285000047,896.8595386999659,896.8598207999603,,,,,64,1,1,001,300,20,1,2023-10-25_13h11.49.579,post-mask-only,2023.2.3,59.964584925706816,2023-10-25 13h11.55.511432 +0800,
Living_Things,processed\face\male_8_0.png,0,0,103,103,53,896.8873287999886,,896.8600339000113,896.8600348000182,896.8873287999886,897.3931485000066,897.4100833999692,897.426815099956,897.410499199992,897.4105113999685,897.426815099956,897.7602237999672,897.7446219999692,897.7446403999929,3.0,897.7602237999672,900.7672971999855,900.7471122000134,900.7471299999743,900.7471328999964,nV_V,900.7672971999855,900.7672971999855,902.2480961999972,2,0,None,902.2484436999657,902.2484476999962,902.2645639000111,902.2645639000111,903.7497180000064,None,0,1,903.7500407999614,3.0,903.766189499991,906.785769500013,906.7530315999757,906.7530486999894,906.7534978999756,,,,,64,1,1,001,300,20,1,2023-10-25_13h11.49.579,post-mask-only,2023.2.3,59.964584925706816,2023-10-25 13h11.55.511432 +0800,
Living_Things,processed\face\male_91_0.png,0,0,104,104,81,906.785769500013,,906.7538112999755,906.7538147000014,906.785769500013,907.2867631000117,907.3052992000012,907.3207690999843,907.3057550999802,907.3057667000103,907.3207690999843,907.6533990000025,907.6376978000044,907.6377098999801,1.5,907.6533990000025,909.1549948999891,909.138689799991,909.1387080999557,909.1387113000383,V_nV,909.1549948999891,909.1549948999891,910.6398828999954,1,0,None,910.640235400002,910.6402409000439,910.6563846999779,910.6563846999779,912.1413214000058,None,0,1,912.1416431000107,3.5,912.1578744999715,915.6657920999569,915.6452336999937,915.6452507000067,915.6456998999929,,,,,64,1,1,001,300,20,1,2023-10-25_13h11.49.579,post-mask-only,2023.2.3,59.964584925706816,2023-10-25 13h11.55.511432 +0800,
Living_Things,processed\face\female_60_0.png,0,0,105,105,173,915.6657920999569,,915.6460109999753,915.6460145000019,915.6657920999569,916.1787416999578,916.1958120999625,916.2123667999986,916.1965016999748,916.1965258999844,916.2123667999986,916.5456910000066,916.529877599969,916.529889700003,1.5,916.5456910000066,918.0471574999974,918.0324160999735,918.0324346999987,918.0324386000284,nV_V,918.0471574999974,918.0471574999974,919.5325173999881,2,0,None,919.5328528999817,919.5328587000258,919.5485757999704,919.5485757999704,921.0335670000059,None,0,1,921.0338974999613,3.5,921.0500747999758,924.5549106000108,924.5374000999727,924.5374177999911,924.5378358999733,919.5485757999704,919.5485757999704,,,64,1,1,001,300,20,1,2023-10-25_13h11.49.579,post-mask-only,2023.2.3,59.964584925706816,2023-10-25 13h11.55.511432 +0800,
Nonliving_Things,processed\house\House95_0.png,0,0,106,106,42,924.5549106000108,,924.5381340999738,924.538137399999,924.5549106000108,925.0540356999845,925.071147300012,925.0879544999916,925.0715129000018,925.0715301999589,925.0879544999916,925.421268599981,925.405568999995,925.4055869999574,1.0,925.421268599981,926.4221198000014,926.4060114999884,926.4060286000022,926.4060317000258,nV_V,926.4221198000014,926.4221198000014,927.9070154000074,1,0,None,927.9073679999565,927.9073741000029,927.9236808000132,927.9236808000132,929.4086452999618,None,0,1,929.4089672999689,3.0,929.4252039999701,932.4345455999719,932.4120135999983,932.41203149996,932.4124816000112,,,,,64,1,1,001,300,20,1,2023-10-25_13h11.49.579,post-mask-only,2023.2.3,59.964584925706816,2023-10-25 13h11.55.511432 +0800,
Living_Things,processed\face\female_100_0.png,0,0,107,107,127,932.4345455999719,,932.4127864000038,932.4127953000134,932.4345455999719,932.9452583999955,932.9622280999902,932.9789718000102,932.9627381999744,932.9627546999836,932.9789718000102,933.3124052999774,933.2967955999775,933.2968140000012,2.5,933.3124052999774,935.8147904999787,935.7986579000135,935.7986734999577,935.7986759000341,nV_V,935.8147904999787,935.8147904999787,937.2997979999636,2,0,None,937.3001514999778,937.3001568000182,937.3164418999804,937.3164418999804,938.8012123999652,None,0,1,938.8014438999817,2.5,938.8178673000075,941.333392600005,941.3046675999649,941.3047020999948,941.3055562999798,,,,,64,1,1,001,300,20,1,2023-10-25_13h11.49.579,post-mask-only,2023.2.3,59.964584925706816,2023-10-25 13h11.55.511432 +0800,
Nonliving_Things,processed\house\House76_0.png,0,0,108,108,19,941.333392600005,,941.3061606999836,941.3061711000046,941.333392600005,941.8375972000067,941.8545086999657,941.8710921999882,941.8550287999678,941.8550453999778,941.8710921999882,942.2045695999986,942.188871899969,942.1888925000094,1.0,942.2045695999986,943.2055183000048,943.1893637999892,943.1893806000007,943.1893837000243,V_nV,943.2055183000048,943.2055183000048,944.6906395999831,2,0,None,944.6909952999558,944.6910009999992,944.7074360999977,944.7074360999977,946.1918902999605,None,0,1,946.1922319000005,3.0,946.2085362999933,949.2221764000133,949.1964342999854,949.1964587999973,949.1971275999676,,,,,64,1,1,001,300,20,1,2023-10-25_13h11.49.579,post-mask-only,2023.2.3,59.964584925706816,2023-10-25 13h11.55.511432 +0800,
Living_Things,processed\face\female_86_0.png,0,0,109,109,176,949.2221764000133,,949.1976197999902,949.1976235000184,949.2221764000133,949.7287328999955,949.7456075999653,949.7623811999802,949.7461997999926,949.7462188999634,949.7623811999802,950.0957579999813,950.0801420999924,950.0801608999609,1.5,950.0957579999813,951.5971998999594,951.5811356999911,951.5811527000042,951.5811558000278,nV_V,951.5971998999594,951.5971998999594,953.0824917999562,2,0,None,953.0830784999998,953.0830879000132,953.0988330999971,953.0988330999971,954.5836533000111,None,0,1,954.5839817000087,2.0,954.6001728000119,956.6134373999666,956.5868315999978,956.5868569999584,956.5873529000091,,,,,64,1,1,001,300,20,1,2023-10-25_13h11.49.579,post-mask-only,2023.2.3,59.964584925706816,2023-10-25 13h11.55.511432 +0800,
Living_Things,processed\face\female_39_0.png,0,0,110,110,20,956.6134373999666,,956.5876928999787,956.5876966000069,956.6134373999666,957.1194758999627,957.1366410999908,957.1530772999977,957.1371912999894,957.1372081000009,957.1530772999977,957.4866402999614,957.4705884999712,957.4706048999797,1.0,957.4866402999614,958.4874324999982,958.4744961999822,958.4745069000055,958.4745081000146,V_nV,958.4874324999982,958.4874324999982,959.9747030999861,1,0,None,959.9752491000108,959.9752534000436,959.9889787000138,959.9889787000138,961.4743369999924,None,0,1,961.4746296000085,3.5,961.4908902999596,964.9980878999922,964.9779111999669,964.9779282999807,964.9783790999791,959.9889787000138,959.9889787000138,961.4908902999596,961.4908902999596,64,1,1,001,300,20,1,2023-10-25_13h11.49.579,post-mask-only,2023.2.3,59.964584925706816,2023-10-25 13h11.55.511432 +0800,
Living_Things,processed\face\male_95_0.png,0,0,111,111,172,964.9980878999922,,964.978699499974,964.9787030000007,964.9980878999922,965.5112517999951,965.5283643999719,965.5451065999805,965.52889029996,965.5289042000077,965.5451065999805,965.8782721000025,965.8625713000074,965.8625897999736,1.5,965.8782721000025,967.3796891999664,967.3656091999728,967.3656283000018,967.3656317000277,V_nV,967.3796891999664,967.3796891999664,968.8657176999841,1,0,None,968.8660001999815,968.8660028000013,968.8812163000111,968.8812163000111,970.3660386999836,None,0,1,970.3663707000087,2.5,970.3827163999667,972.8980446999776,972.8693353999988,972.869351900008,972.8697935999953,,,,,64,1,1,001,300,20,1,2023-10-25_13h11.49.579,post-mask-only,2023.2.3,59.964584925706816,2023-10-25 13h11.55.511432 +0800,
Living_Things,processed\face\female_73_0.png,0,0,112,112,144,972.8980446999776,,972.8700867999578,972.8700899000396,972.8980446999776,973.4023581999936,973.4193131999928,973.4361608999898,973.4197959000012,973.4198129999568,973.4361608999898,973.7693944000057,973.753602999961,973.753615499998,2.0,973.7693944000057,975.7714590000105,975.7551301000058,975.755152800004,975.7551567000337,V_nV,975.7714590000105,975.7714590000105,977.2563929999596,1,0,None,977.2567391999764,977.2567447000183,977.2729218999739,977.2729218999739,978.7577977000037,None,0,1,978.758122899977,3.0,978.774341100012,981.7884094999754,981.7613370000036,981.7613515999983,981.7617184999981,,,,,64,1,1,001,300,20,1,2023-10-25_13h11.49.579,post-mask-only,2023.2.3,59.964584925706816,2023-10-25 13h11.55.511432 +0800,
Nonliving_Things,processed\house\House84_0.png,0,0,113,113,50,981.7884094999754,,981.7619790000026,981.7619813000201,981.7884094999754,982.2945379999583,982.3114842000068,982.328370800009,982.3119007999776,982.3119128000108,982.328370800009,982.6616414999589,982.6459044999792,982.6459232000052,3.0,982.6616414999589,985.6646931999712,985.6492355999653,985.6492616999894,985.6492654000176,nV_V,985.6646931999712,985.6646931999712,987.1494737999747,1,0,None,987.1497466999572,987.1497499000398,987.1660961000016,987.1660961000016,988.651116199966,None,0,1,988.651366200007,3.0,988.6676777999965,991.6858188000042,991.6548471999704,991.6548670000047,991.6553865000024,,,,,64,1,1,001,300,20,1,2023-10-25_13h11.49.579,post-mask-only,2023.2.3,59.964584925706816,2023-10-25 13h11.55.511432 +0800,
Living_Things,processed\face\male_96_0.png,0,0,114,114,59,991.6858188000042,,991.6557948999689,991.6557969000423,991.6858188000042,992.1878612999571,992.2047221999965,992.2213525999687,992.2052740000072,992.2052913999651,992.2213525999687,992.5548089999938,992.5392764999997,992.5392947999644,1.0,992.5548089999938,993.5559737999574,993.5402044999646,993.5402340999572,993.5402409000089,nV_V,993.5559737999574,993.5559737999574,995.0406825999962,2,0,None,995.0411298999679,995.0411375000258,995.0573681999813,995.0573681999813,996.5422639999888,None,0,1,996.5425968999625,2.5,996.5587581999716,999.0635653999634,999.0452535999939,999.0452746999799,999.0458695999696,,,,,64,1,1,001,300,20,1,2023-10-25_13h11.49.579,post-mask-only,2023.2.3,59.964584925706816,2023-10-25 13h11.55.511432 +0800,
Living_Things,processed\face\male_65_0.png,0,0,115,115,72,999.0635653999634,,999.0462387999869,999.0462439000257,999.0635653999634,999.5786125999875,999.5953993999865,999.6127443999867,999.5960590000032,999.5960830000113,999.6127443999867,999.9454488999909,999.9302974999882,999.9303163999575,3.0,999.9454488999909,1002.9484648999642,1002.9323107000091,1002.9323263000115,1002.932328200026,V_nV,1002.9484648999642,1002.9484648999642,1004.4334161999868,1,0,None,1004.4337713000132,1004.4337766999961,1004.4506519999704,1004.4506519999704,1005.9348881999613,None,0,1,1005.9351489999681,2.5,1005.9515527999611,1008.468966299959,1008.4378650999861,1008.4378831000067,1008.4383325999952,,,,,64,1,1,001,300,20,1,2023-10-25_13h11.49.579,post-mask-only,2023.2.3,59.964584925706816,2023-10-25 13h11.55.511432 +0800,
Nonliving_Things,processed\house\House37_0.png,0,0,116,116,88,1008.468966299959,,1008.4386461999966,1008.4386496000225,1008.468966299959,1008.9713050999562,1008.9882194999955,1009.0047740999726,1008.9887282999698,1008.9887459999882,1009.0047740999726,1009.3382509999792,1009.3228396999766,1009.3228574999957,2.5,1009.3382509999792,1011.8407417999697,1011.8246515999781,1011.8246683999896,1011.8246715000132,V_nV,1011.8407417999697,1011.8407417999697,1013.3256611999823,2,0,None,1013.326002799964,1013.3260082000052,1013.3422667999985,1013.3422667999985,1014.8271865999559,None,0,1,1014.8275476999697,2.5,1014.8438747999608,1017.348265299981,1017.3301052000024,1017.3301219999557,1017.3305738999625,,,,,64,1,1,001,300,20,1,2023-10-25_13h11.49.579,post-mask-only,2023.2.3,59.964584925706816,2023-10-25 13h11.55.511432 +0800,
Nonliving_Things,processed\house\House23_0.png,0,0,117,117,163,1017.348265299981,,1017.3308779000072,1017.3308812000323,1017.348265299981,1017.8641589999897,1017.8805520999595,1017.8970372999902,1017.8810995999957,1017.8811294999905,1017.8970372999902,1018.2304782999563,1018.2180988999899,1018.2181137999869,1.0,1018.2304782999563,1019.2315105999587,1019.2152535999776,1019.2152677999693,1019.2152698000427,V_nV,1019.2315105999587,1019.2315105999587,1020.7163379999693,2,0,None,1020.7166932999971,1020.7166997000459,1020.7330573999789,1020.7330573999789,1022.2179001999903,None,0,1,1022.2182383000036,3.5,1022.2344795999816,1025.7409576000064,1025.7226261000033,1025.7226537999813,1025.723659799958,,,,,64,1,1,001,300,20,1,2023-10-25_13h11.49.579,post-mask-only,2023.2.3,59.964584925706816,2023-10-25 13h11.55.511432 +0800,
Living_Things,processed\face\female_32_0.png,0,0,118,118,71,1025.7409576000064,,1025.7243206999847,1025.724326000025,1025.7409576000064,1026.2551027999725,1026.2720317000058,1026.2887629999896,1026.2725524000125,1026.2725691999658,1026.2887629999896,1026.6221569000045,1026.6071889000013,1026.6072125000064,2.5,1026.6221569000045,1029.1247572999564,1029.1097677999642,1029.1098234999808,1029.1098413,nV_V,1029.1247572999564,1029.1247572999564,1030.6099327999982,2,0,None,1030.6102744999807,1030.6102804000257,1030.6261093000066,1030.6261093000066,1032.111024599988,None,0,1,1032.1112751999754,3.5,1032.1276378000039,1035.6363092999673,1035.614990299975,1035.615007699991,1035.6154219000018,1030.6261093000066,1030.6261093000066,,,64,1,1,001,300,20,1,2023-10-25_13h11.49.579,post-mask-only,2023.2.3,59.964584925706816,2023-10-25 13h11.55.511432 +0800,
Living_Things,processed\face\female_1_0.png,0,0,119,119,152,1035.6363092999673,,1035.6157310999697,1035.6157346999971,1035.6363092999673,1036.1482989999931,1036.165397499979,1036.182024299982,1036.1658727999893,1036.1658860999742,1036.182024299982,1036.5153565999935,1036.4997613999876,1036.4997800000128,1.5,1036.5153565999935,1038.0169511999702,1038.0007151999744,1038.0007324999897,1038.000735700014,V_nV,1038.0169511999702,1038.0169511999702,1039.5018127000076,1,0,None,1039.5021686999826,1039.502174400026,1039.518289199972,1039.518289199972,1041.0032580000116,None,0,1,1041.0034900999744,2.5,1041.019885799964,1043.5235141000012,1043.5061298999935,1043.5061579999747,1043.5066003999673,,,,,64,1,1,001,300,20,1,2023-10-25_13h11.49.579,post-mask-only,2023.2.3,59.964584925706816,2023-10-25 13h11.55.511432 +0800,
Living_Things,processed\face\male_56_0.png,0,0,120,120,153,1043.5235141000012,,1043.5069147999748,1043.5069184000022,1043.5235141000012,1044.0228250999935,1044.0398236999754,1044.0566997000133,1044.0403233999969,1044.0403406000114,1044.0566997000133,1044.3899670999963,1044.373963799968,1044.3739759000018,1.5,1044.3899670999963,1045.8913439000025,1045.8751971999882,1045.875214300002,1045.8752174000256,nV_V,1045.8913439000025,1045.8913439000025,1047.3763003000058,2,0,None,1047.3765568999806,1047.3765595000004,1047.392820500012,1047.392820500012,1048.8778134000022,None,0,1,1048.8781393999816,3.5,1048.8943388999905,1052.409796299995,1052.38170540001,1052.3817166999797,1052.3820263000089,,,,,64,1,1,001,300,20,1,2023-10-25_13h11.49.579,post-mask-only,2023.2.3,59.964584925706816,2023-10-25 13h11.55.511432 +0800,
Nonliving_Things,processed\house\House41_0.png,0,0,121,121,24,1052.409796299995,,1052.3822386999964,1052.3822398000048,1052.409796299995,1052.9149896999588,1052.9320967000094,1052.9487762000063,1052.9326412999653,1052.9326576999738,1052.9487762000063,1053.2819626000128,1053.2664121999987,1053.266430699965,2.5,1053.2819626000128,1055.7845853999606,1055.7683623000048,1055.7683788999566,1055.7683819000376,nV_V,1055.7845853999606,1055.7845853999606,1057.2695846999995,1,0,None,1057.2699067000067,1057.2699115000432,1057.286146999977,1057.286146999977,1058.7709216999938,None,0,1,1058.7712642999832,3.5,1058.7876070999773,1062.2913686999818,1062.2745658999775,1062.2745757999946,1062.2748422999866,,,,,64,1,1,001,300,20,1,2023-10-25_13h11.49.579,post-mask-only,2023.2.3,59.964584925706816,2023-10-25 13h11.55.511432 +0800,
Nonliving_Things,processed\house\House10_0.png,0,0,122,122,186,1062.2913686999818,,1062.2750452999608,1062.2750463000266,1062.2913686999818,1062.7915640999563,1062.808462099987,1062.8255546999862,1062.809010899975,1062.809028299991,1062.8255546999862,1063.1587342999992,1063.143002900004,1063.1430207999656,2.0,1063.1587342999992,1065.1606285999878,1065.1445094000082,1065.144526399963,1065.1445294000441,nV_V,1065.1606285999878,1065.1606285999878,1066.6457542999997,1,0,None,1066.6460803999798,1066.646085400018,1066.662158799998,1066.662158799998,1068.1468455999857,None,0,1,1068.1470717999619,2.5,1068.1636569999973,1070.6681763000088,1070.6498927999637,1070.6499112999882,1070.6503620999865,,,,,64,1,1,001,300,20,1,2023-10-25_13h11.49.579,post-mask-only,2023.2.3,59.964584925706816,2023-10-25 13h11.55.511432 +0800,
